Time (s),Latitude (°),Longitude (°),Height (m),Velocity (m/s),Direction (°),Horizontal Accuracy (m),Vertical Accuracy (m),w,x,y,z,Direct (°),Yaw (°),Pitch (°),Roll (°),Acceleration x (m/s^2),Acceleration y (m/s^2),Acceleration z (m/s^2),Gyroscope x (rad/s),Gyroscope y (rad/s),Gyroscope z (rad/s),Linear Acceleration x (m/s^2),Linear Acceleration y (m/s^2),Linear Acceleration z (m/s^2)
7.201304616,21.00606833,73.959885,10527.09773,237.3605499,220.9199982,5.5,91.40000153,,,,,,,,,,,,,,,,,
8.202116001,21.00443833,73.95837667,10526.10092,236.8967896,220.9400024,5.5,130.8000031,,,,,,,,,,,,,,,,,
9.206097462,21.00274,73.956905,10510.40436,236.9523773,220.75,5.199999809,126.5,,,,,,,,,,,,,,,,,
10.20638892,21.00108333,73.95540833,10512.50764,236.8020782,220.9299927,4.599999905,115.1999969,,,,,,,,,,,,,,,,,
11.83117131,20.99844667,73.95297833,10507.01364,236.3805237,221.0399933,4.5,113.3000031,,,,,,,,,,,,,,,,,
12.82864677,20.99682833,73.951475,10505.71767,236.5128021,221.0700073,4.300000191,111.1999969,,,,,,,,,,,,,,,,,
13.83061323,20.99521667,73.94996167,10507.32167,236.7542114,221.0500031,4.199999809,96.69999695,,,,,,,,,,,,,,,,,
14.83075008,20.993595,73.94845333,10511.12571,236.5941315,220.9700012,4.099999905,74.69999695,,,,,,,,,,,,,,,,,
15.82870462,20.99198333,73.94695167,10510.42971,236.4474335,221.0200043,4.0,70.59999847,,,,,,,,,,,,,,,,,
16.83114116,20.99037333,73.94545,10510.23371,236.6718445,221.0500031,3.900000095,70.40000153,,,,,,,,,,,,,,,,,
17.83117046,20.98876,73.94395667,10509.63773,236.3249359,220.9299927,3.900000095,71.0,,,,,,,,,,,,,,,,,
18.82820577,20.98714333,73.94245833,10512.24175,236.6049347,220.8600006,3.700000048,65.90000153,,,,,,,,,,,,,,,,,
19.829675,20.98552667,73.94096667,10512.84578,236.7341309,220.9299927,3.700000048,60.09999847,,,,,,,,,,,,,,,,,
20.83067631,20.98391167,73.93947167,10513.64979,236.5740509,221.1100006,3.599999905,55.0,,,,,,,,,,,,,,,,,
21.82919777,20.98230167,73.93796667,10516.35378,236.4206696,221.2400055,3.5,49.5,,,,,,,,,,,,,,,,,
22.83056769,20.98071333,73.93649833,10501.25773,236.1210938,221.1499939,3.400000095,35.70000076,,,,,,,,,,,,,,,,,
23.832932,20.97910667,73.93502,10497.36173,236.7531738,221.3300018,3.299999952,34.79999924,,,,,,,,,,,,,,,,,
24.82860923,20.97749833,73.93352333,10497.16571,236.2847748,221.1199951,3.200000048,31.10000038,,,,,,,,,,,,,,,,,
25.83027039,20.97589333,73.93203167,10496.76968,236.084549,221.0899963,3.099999905,30.20000076,,,,,,,,,,,,,,,,,
26.83081508,20.97428667,73.93054667,10495.37367,236.4036865,221.0299988,3.0,29.5,,,,,,,,,,,,,,,,,
27.82856339,20.97267667,73.929055,10494.07766,236.5853729,221.0599976,3.0,29.10000038,,,,,,,,,,,,,,,,,
28.83065046,20.971075,73.92755833,10492.58161,236.1530151,221.0200043,2.900000095,28.79999924,,,,,,,,,,,,,,,,,
29.83182485,20.96946833,73.92606833,10490.68559,236.5580902,221.0899963,2.799999952,28.10000038,,,,,,,,,,,,,,,,,
30.82882369,20.967865,73.92457333,10489.08955,236.1900787,221.0800018,2.799999952,27.39999962,,,,,,,,,,,,,,,,,
31.83070154,20.96625833,73.923085,10486.49352,236.5797119,221.1900024,2.799999952,27.60000038,,,,,,,,,,,,,,,,,
32.83200123,20.964655,73.92159333,10485.59748,236.1952209,221.0500031,2.799999952,27.89999962,,,,,,,,,,,,,,,,,
33.82984177,20.96305333,73.92011,10483.40143,235.8215332,221.1399994,2.700000048,27.39999962,,,,,,,,,,,,,,,,,
34.83053408,20.96144833,73.91862667,10480.9054,236.3944092,221.0700073,2.700000048,27.0,,,,,,,,,,,,,,,,,
35.83256946,20.95984,73.91714667,10479.10938,236.2585297,221.0899963,2.599999905,26.10000038,,,,,,,,,,,,,,,,,
36.82896677,20.95823167,73.91566167,10477.51336,236.9034729,221.0099945,2.599999905,27.0,,,,,,,,,,,,,,,,,
37.83213777,20.95662833,73.91417,10478.01731,236.6018524,221.0500031,2.599999905,27.20000076,,,,,,,,,,,,,,,,,
38.8310347,20.95502667,73.91267833,10478.12125,235.6182098,221.2200012,2.599999905,26.29999924,,,,,,,,,,,,,,,,,
39.83003477,20.95343333,73.91118667,10479.52515,235.6537323,221.3399963,2.700000048,27.0,,,,,,,,,,,,,,,,,
40.83031446,20.95183333,73.909695,10479.32908,236.4366302,221.1900024,2.599999905,28.60000038,,,,,,,,,,,,,,,,,
41.83198739,20.95023667,73.9082,10480.533,236.0716858,221.2299957,2.599999905,26.70000076,,,,,,,,,,,,,,,,,
42.82864854,20.94864,73.90671,10481.33691,235.8966827,221.2200012,2.599999905,26.29999924,,,,,,,,,,,,,,,,,
43.83163285,20.94704333,73.90521667,10481.64082,236.1360321,221.25,2.5,25.0,,,,,,,,,,,,,,,,,
44.83111139,20.94544167,73.90372167,10481.54475,236.1231537,221.2299957,2.599999905,23.60000038,,,,,,,,,,,,,,,,,
45.83010454,20.94384167,73.902225,10482.24866,236.4278717,221.1900024,2.599999905,23.39999962,,,,,,,,,,,,,,,,,
46.830623,20.94224,73.90073,10481.15258,236.0145569,221.2599945,2.599999905,20.39999962,,,,,,,,,,,,,,,,,
47.83346739,20.94063833,73.89924,10480.45651,235.7021179,221.1399994,2.599999905,20.29999924,,,,,,,,,,,,,,,,,
48.82838739,20.93904167,73.89774833,10480.36041,236.2080841,221.2899933,2.599999905,20.70000076,,,,,,,,,,,,,,,,,
49.8328267,20.93744333,73.896255,10480.36432,235.8539581,221.1499939,2.599999905,21.20000076,,,,,,,,,,,,,,,,,
50.83232177,20.935845,73.89476333,10480.26822,235.8575592,221.1999969,2.599999905,21.0,,,,,,,,,,,,,,,,,
51.83017016,20.93424167,73.893275,10479.77215,235.8549805,221.1499939,2.599999905,21.60000038,,,,,,,,,,,,,,,,,
52.83159008,20.93264333,73.89178167,10479.17605,236.0299988,221.2700043,2.599999905,19.5,,,,,,,,,,,,,,,,,
53.83228547,20.93104667,73.89029333,10477.87995,235.4416656,221.2700043,2.5,19.0,,,,,,,,,,,,,,,,,
54.82882123,20.92944833,73.8888,10478.38384,236.0835266,221.2200012,2.599999905,19.20000076,,,,,,,,,,,,,,,,,
55.82992516,20.92784667,73.88730667,10478.18775,236.0526428,221.2200012,2.599999905,20.0,,,,,,,,,,,,,,,,,
56.83062639,20.92625,73.88581167,10477.49164,235.5317383,221.3399963,2.700000048,20.70000076,,,,,,,,,,,,,,,,,
57.83010677,20.924655,73.88431833,10476.99552,235.6732941,221.3099976,2.700000048,20.70000076,,,,,,,,,,,,,,,,,
58.83022608,20.92305333,73.882825,10477.09942,236.3362579,221.1300049,2.799999952,21.79999924,,,,,,,,,,,,,,,,,
59.83483377,20.92145,73.88134,10476.80333,235.8560181,221.2700043,2.700000048,21.79999924,,,,,,,,,,,,,,,,,
60.82836031,20.92145,73.88134,10476.80333,0.0,221.2700043,2.799999952,20.89999962,,,,,,,,,,,,,,,,,
61.830051,20.91824833,73.87835167,10481.11112,236.2158051,221.2599945,2.799999952,20.89999962,,,,,,,,,,,,,,,,,
62.83133354,20.91664667,73.876865,10481.41502,235.8096924,221.1999969,2.700000048,20.70000076,,,,,,,,,,,,,,,,,
63.83033685,20.91504667,73.87537333,10481.01891,236.5236053,221.3300018,2.700000048,21.10000038,,,,,,,,,,,,,,,,,
64.83184124,20.91344667,73.87387333,10482.32278,235.9538116,221.1799927,2.700000048,20.70000076,,,,,,,,,,,,,,,,,
65.83166977,20.911845,73.87239,10481.42668,235.8601379,221.1999969,2.700000048,20.70000076,,,,,,,,,,,,,,,,,
66.82880954,20.91024167,73.87089833,10482.23058,236.1133728,221.2200012,2.599999905,21.20000076,,,,,,,,,,,,,,,,,
67.83015962,20.90864167,73.86940333,10483.93445,235.7813873,221.3099976,2.599999905,20.89999962,,,,,,,,,,,,,,,,,
68.83104585,20.90704333,73.86791667,10482.93833,235.7891083,221.0700073,2.599999905,20.60000038,,,,,,,,,,,,,,,,,
69.82986,20.90544333,73.86642833,10482.54221,235.7752075,221.1199951,2.599999905,19.5,,,,,,,,,,,,,,,,,
70.83175931,20.90384167,73.86493667,10482.94609,236.016098,221.2599945,2.599999905,19.5,,,,,,,,,,,,,,,,,
71.83152831,20.90224,73.86344667,10483.14997,236.0356598,221.0299988,2.5,20.20000076,,,,,,,,,,,,,,,,,
72.82901908,20.90064167,73.86195,10485.05383,235.6707153,221.3899994,2.5,20.20000076,,,,,,,,,,,,,,,,,
73.83034308,20.89904667,73.860455,10484.35768,236.1591949,221.1799927,2.5,18.60000038,,,,,,,,,,,,,,,,,
74.83169847,20.89744667,73.85896167,10483.56155,236.0696259,221.1100006,2.5,18.5,,,,,,,,,,,,,,,,,
75.83039993,20.89584667,73.85747,10484.16541,235.7535858,221.1999969,2.5,18.79999924,,,,,,,,,,,,,,,,,
76.8320077,20.89425167,73.85597833,10483.36926,235.9944763,221.1900024,2.599999905,17.79999924,,,,,,,,,,,,,,,,,
77.83391285,20.89265333,73.854485,10483.37311,236.0186615,221.2200012,2.5,17.60000038,,,,,,,,,,,,,,,,,
78.82908824,20.89105333,73.85299333,10483.37697,235.9146881,221.1399994,2.5,17.39999962,,,,,,,,,,,,,,,,,
79.831355,20.88945167,73.8515,10483.18084,235.9445496,221.2100067,2.5,16.79999924,,,,,,,,,,,,,,,,,
80.83271039,20.88785167,73.85000833,10483.28469,236.0495453,221.1900024,2.5,16.89999962,,,,,,,,,,,,,,,,,
81.83248493,20.88625,73.848515,10482.98855,236.0814667,221.1100006,2.5,16.5,,,,,,,,,,,,,,,,,
82.83437654,20.88464667,73.84702167,10482.39241,235.9553528,221.1600037,2.5,17.0,,,,,,,,,,,,,,,,,
83.8349147,20.88304667,73.84552667,10482.29626,236.3300781,221.1799927,2.5,17.70000076,,,,,,,,,,,,,,,,,
84.82889631,20.881445,73.84402667,10483.00011,236.1911011,221.0599976,2.5,17.5,,,,,,,,,,,,,,,,,
85.83112516,20.879845,73.84253,10482.70395,236.0984497,221.2599945,2.5,16.89999962,,,,,,,,,,,,,,,,,
86.83175808,20.87824667,73.84103667,10481.80779,236.1195526,221.2100067,2.599999905,17.29999924,,,,,,,,,,,,,,,,,
87.8304067,20.876645,73.83954333,10481.21163,236.392868,221.1799927,2.599999905,17.79999924,,,,,,,,,,,,,,,,,
88.83214731,20.875045,73.83805,10481.01547,235.9996185,221.1999969,2.599999905,16.70000076,,,,,,,,,,,,,,,,,
89.83459162,20.873445,73.836555,10480.71931,236.2667694,221.2899933,2.599999905,16.20000076,,,,,,,,,,,,,,,,,
90.83001078,20.871845,73.83505833,10480.52314,236.2477264,221.3500061,2.599999905,15.89999962,,,,,,,,,,,,,,,,,
91.8320747,20.87024333,73.83356333,10479.92698,236.1005096,221.2400055,2.599999905,16.39999962,,,,,,,,,,,,,,,,,
92.83163193,20.86864167,73.83207167,10479.73082,236.0953674,221.2100067,2.599999905,16.60000038,,,,,,,,,,,,,,,,,
93.8303227,20.86704,73.83058167,10479.53466,236.0742645,221.25,2.599999905,17.39999962,,,,,,,,,,,,,,,,,
94.83110824,20.86543833,73.82908667,10479.53849,236.2693329,221.2400055,2.599999905,18.0,,,,,,,,,,,,,,,,,
95.83240124,20.86383667,73.82759333,10478.84233,236.2327881,221.1900024,2.700000048,18.70000076,,,,,,,,,,,,,,,,,
96.83011624,20.86222833,73.82610667,10478.24619,236.0475006,221.1100006,2.799999952,19.79999924,,,,,,,,,,,,,,,,,
97.83211439,20.86062667,73.82462,10477.75003,236.046463,221.25,2.700000048,20.10000038,,,,,,,,,,,,,,,,,
98.83194547,20.85902167,73.82313,10475.65387,236.5689087,221.2100067,2.700000048,18.60000038,,,,,,,,,,,,,,,,,
99.83044678,20.85741333,73.82163667,10476.15772,236.5858917,221.2799988,2.599999905,18.29999924,,,,,,,,,,,,,,,,,
100.8323059,20.85581,73.82013833,10476.66154,236.810318,221.2200012,2.599999905,18.89999962,,,,,,,,,,,,,,,,,
101.8348631,20.854205,73.81864333,10476.96537,236.4690552,221.1600037,2.599999905,17.10000038,,,,,,,,,,,,,,,,,
102.8296369,20.85259667,73.81715833,10475.56923,236.7171478,221.0800018,2.599999905,17.29999924,,,,,,,,,,,,,,,,,
103.830831,20.85099167,73.815665,10476.17306,236.2749939,221.1999969,2.599999905,18.10000038,,,,,,,,,,,,,,,,,
104.8316892,20.849385,73.814175,10475.8769,236.3583832,221.1999969,2.599999905,18.20000076,,,,,,,,,,,,,,,,,
105.8305735,20.84778167,73.81268,10476.98071,236.0948486,221.2799988,2.599999905,17.5,,,,,,,,,,,,,,,,,
106.8310409,20.84617167,73.81119,10476.58456,236.8000183,221.0399933,2.599999905,17.29999924,,,,,,,,,,,,,,,,,
107.8335227,20.844565,73.80969833,10476.48839,236.3465424,221.1900024,2.599999905,17.79999924,,,,,,,,,,,,,,,,,
108.8287732,20.84295833,73.80820833,10475.59222,236.2014008,221.1399994,2.599999905,17.10000038,,,,,,,,,,,,,,,,,
109.830923,20.84135,73.80671667,10475.29605,237.0558319,221.0899963,2.599999905,17.10000038,,,,,,,,,,,,,,,,,
110.8334597,20.83974,73.805225,10474.99989,236.6893463,221.0500031,2.599999905,17.20000076,,,,,,,,,,,,,,,,,
111.8303966,20.83813,73.80373333,10475.30373,236.4798584,221.0700073,2.599999905,17.10000038,,,,,,,,,,,,,,,,,
112.8316739,20.83652,73.80224167,10475.20756,236.5694275,221.1600037,2.599999905,17.70000076,,,,,,,,,,,,,,,,,
113.8338188,20.83491333,73.800745,10474.01137,236.5658112,221.1699982,2.599999905,18.29999924,,,,,,,,,,,,,,,,,
114.8290519,20.83330667,73.79925,10473.91519,236.5493469,221.1699982,2.599999905,19.20000076,,,,,,,,,,,,,,,,,
115.8301015,20.83170167,73.797755,10473.31899,236.5869293,221.1199951,2.599999905,17.60000038,,,,,,,,,,,,,,,,,
116.8306163,20.830095,73.79625667,10473.0228,236.9539185,221.1000061,2.599999905,17.5,,,,,,,,,,,,,,,,,
117.8308339,20.828485,73.79476167,10474.02662,236.4551544,221.1499939,2.599999905,17.29999924,,,,,,,,,,,,,,,,,
118.8311701,20.82688167,73.793265,10473.83041,236.4258118,221.2599945,2.599999905,17.29999924,,,,,,,,,,,,,,,,,
119.8336344,20.82528167,73.79177167,10473.33419,236.1401367,221.1499939,2.700000048,16.89999962,,,,,,,,,,,,,,,,,
120.8290674,20.82367667,73.79028,10472.43799,236.4860382,221.1600037,2.599999905,17.0,,,,,,,,,,,,,,,,,
121.8306172,20.82207,73.78878667,10472.5418,236.4711151,221.1300049,2.599999905,17.60000038,,,,,,,,,,,,,,,,,
122.8314043,20.820465,73.78729167,10473.14559,236.6286163,221.1499939,2.599999905,18.29999924,,,,,,,,,,,,,,,,,
123.8304212,20.818865,73.78579667,10475.04936,235.9620514,221.1600037,2.599999905,17.60000038,,,,,,,,,,,,,,,,,
124.8309387,20.81726167,73.784305,10474.65315,236.2960968,221.2899933,2.599999905,16.39999962,,,,,,,,,,,,,,,,,
125.8328845,20.81565667,73.78281,10474.55694,236.8041382,221.1199951,2.5,16.5,,,,,,,,,,,,,,,,,
126.8291637,20.81404333,73.78131833,10475.06076,236.8283234,221.0899963,2.599999905,18.10000038,,,,,,,,,,,,,,,,,
127.8301382,20.81243667,73.779825,10475.16455,236.0258789,221.0899963,2.599999905,19.20000076,,,,,,,,,,,,,,,,,
128.8315842,20.81083333,73.77833667,10474.66833,236.2873535,221.0899963,2.700000048,17.79999924,,,,,,,,,,,,,,,,,
129.8300738,20.80922667,73.776845,10473.67212,236.8870087,221.0899963,2.700000048,17.20000076,,,,,,,,,,,,,,,,,
130.8310845,20.80761333,73.77535,10473.97593,236.7747955,221.1999969,2.700000048,16.70000076,,,,,,,,,,,,,,,,,
131.8331375,20.80600667,73.77385667,10474.97971,236.4047089,221.2299957,2.700000048,16.29999924,,,,,,,,,,,,,,,,,
132.8294375,20.80440167,73.772365,10475.28349,236.5781708,221.1799927,2.700000048,16.89999962,,,,,,,,,,,,,,,,,
133.82994,20.80279667,73.770875,10475.48727,236.699646,221.1300049,2.700000048,16.79999924,,,,,,,,,,,,,,,,,
134.8300797,20.80118833,73.76938667,10474.99106,236.5066223,220.9900055,2.700000048,16.5,,,,,,,,,,,,,,,,,
135.8299619,20.79957833,73.76789333,10475.09485,237.1036987,220.9600067,2.700000048,16.60000038,,,,,,,,,,,,,,,,,
136.8310539,20.79797167,73.76640167,10475.09863,236.9765625,221.0800018,2.799999952,16.70000076,,,,,,,,,,,,,,,,,
137.8325885,20.79636833,73.76490833,10475.20239,236.2214661,221.2200012,2.700000048,17.29999924,,,,,,,,,,,,,,,,,
138.828952,20.794765,73.76341667,10475.10615,236.0150604,221.1699982,2.700000048,18.20000076,,,,,,,,,,,,,,,,,
139.8309489,20.79315667,73.76192833,10474.60993,236.4335327,221.0200043,2.700000048,18.79999924,,,,,,,,,,,,,,,,,
140.8306769,20.79154333,73.76043333,10475.91372,236.2611084,221.1900024,2.700000048,18.79999924,,,,,,,,,,,,,,,,,
141.8299791,20.78993833,73.75893667,10476.71748,236.735672,221.1300049,2.599999905,18.39999962,,,,,,,,,,,,,,,,,
142.8305043,20.78833,73.75744167,10477.62124,236.7521515,221.1699982,2.599999905,18.39999962,,,,,,,,,,,,,,,,,
143.8317483,20.78672833,73.75594833,10477.12499,236.5375061,221.0200043,2.599999905,18.79999924,,,,,,,,,,,,,,,,,
144.8290634,20.78512,73.75445667,10478.82876,236.888031,221.0299988,2.599999905,19.5,,,,,,,,,,,,,,,,,
145.8315252,20.78351333,73.75296,10478.23251,236.9729614,221.1399994,2.599999905,20.29999924,,,,,,,,,,,,,,,,,
146.8303602,20.78190167,73.75147167,10478.43629,236.4587555,220.9299927,2.599999905,20.29999924,,,,,,,,,,,,,,,,,
147.8305394,20.78029333,73.74999333,10477.54007,235.8874207,221.0399933,2.599999905,20.89999962,,,,,,,,,,,,,,,,,
148.8310237,20.77868667,73.748495,10476.64382,237.4640045,220.9400024,2.599999905,21.20000076,,,,,,,,,,,,,,,,,
149.8339951,20.77707333,73.74700333,10476.64759,237.0867157,221.2599945,2.599999905,20.0,,,,,,,,,,,,,,,,,
150.8304372,20.775465,73.74550333,10476.25134,237.3502502,221.1799927,2.599999905,16.29999924,,,,,,,,,,,,,,,,,
151.8311375,20.77385667,73.74400667,10476.15509,237.3116455,221.25,2.599999905,15.80000019,,,,,,,,,,,,,,,,,
152.8321535,20.77224833,73.74251,10476.35884,237.3456268,221.0700073,2.700000048,16.39999962,,,,,,,,,,,,,,,,,
153.8302156,20.770635,73.74101333,10475.3626,237.5823975,221.1999969,2.700000048,17.20000076,,,,,,,,,,,,,,,,,
154.8321019,20.76903,73.739515,10474.06633,237.1407623,221.1999969,2.700000048,17.89999962,,,,,,,,,,,,,,,,,
155.8325661,20.76742667,73.73802,10472.47006,236.9997253,221.1300049,2.599999905,18.39999962,,,,,,,,,,,,,,,,,
156.8300753,20.76581667,73.73652333,10471.1738,237.5849762,221.0899963,2.599999905,19.0,,,,,,,,,,,,,,,,,
157.8313111,20.76420667,73.73503,10469.27755,237.1119385,221.1699982,2.599999905,20.0,,,,,,,,,,,,,,,,,
158.8316233,20.76260167,73.73353,10467.98127,237.1119385,221.1000061,2.599999905,18.89999962,,,,,,,,,,,,,,,,,
159.830348,20.760995,73.73203167,10466.285,237.0949554,221.0700073,2.599999905,18.89999962,,,,,,,,,,,,,,,,,
160.8321329,20.75938833,73.730535,10463.98872,237.1165771,221.1399994,2.599999905,18.10000038,,,,,,,,,,,,,,,,,
161.8318738,20.75778,73.72903833,10461.49245,237.1515656,221.0800018,2.599999905,18.5,,,,,,,,,,,,,,,,,
162.8293978,20.75616833,73.72754333,10458.4962,237.2385559,221.1000061,2.599999905,18.89999962,,,,,,,,,,,,,,,,,
163.8309299,20.75455667,73.72604667,10455.09993,237.236496,221.1499939,2.599999905,19.79999924,,,,,,,,,,,,,,,,,
164.8311387,20.752945,73.72455333,10451.30368,237.2684174,221.0700073,2.599999905,20.0,,,,,,,,,,,,,,,,,
165.8299135,20.75133167,73.72305667,10447.10742,237.2328949,221.1300049,2.599999905,20.20000076,,,,,,,,,,,,,,,,,
166.8309821,20.74971833,73.72156333,10442.21116,237.1968689,221.1199951,2.599999905,19.29999924,,,,,,,,,,,,,,,,,
167.831491,20.74810667,73.72006833,10437.91489,237.3626099,221.1499939,2.599999905,19.0,,,,,,,,,,,,,,,,,
168.8294744,20.746495,73.71857333,10432.21862,237.7090149,221.1399994,2.599999905,18.70000076,,,,,,,,,,,,,,,,,
169.8314957,20.74488167,73.71707833,10427.22236,236.7886963,221.0800018,2.599999905,18.39999962,,,,,,,,,,,,,,,,,
170.8327077,20.74326833,73.715585,10422.72609,237.1551819,221.1100006,2.599999905,18.70000076,,,,,,,,,,,,,,,,,
171.8306849,20.74165833,73.71408833,10417.32981,237.1500244,221.25,2.599999905,18.70000076,,,,,,,,,,,,,,,,,
172.8308037,20.74004833,73.71259167,10412.23353,237.1845093,221.0399933,2.599999905,18.79999924,,,,,,,,,,,,,,,,,
173.8328828,20.73843667,73.71110167,10407.73726,237.0105438,221.1399994,2.599999905,18.89999962,,,,,,,,,,,,,,,,,
174.8279932,20.736825,73.70960833,10403.34098,237.0923767,221.1600037,2.599999905,19.20000076,,,,,,,,,,,,,,,,,
175.8306584,20.73521667,73.708115,10398.04469,236.7994995,221.2100067,2.599999905,18.39999962,,,,,,,,,,,,,,,,,
176.8301301,20.73361,73.70661833,10392.54838,237.2349548,221.3099976,2.599999905,17.79999924,,,,,,,,,,,,,,,,,
177.8297273,20.73200167,73.705125,10386.85209,236.899353,221.2100067,2.599999905,18.0,,,,,,,,,,,,,,,,,
178.8312532,20.73039167,73.70363333,10380.9558,237.0512085,221.2100067,2.599999905,17.70000076,,,,,,,,,,,,,,,,,
179.8328002,20.72878167,73.70214333,10375.85951,236.8226624,221.2200012,2.599999905,17.0,,,,,,,,,,,,,,,,,
180.8296636,20.72717167,73.70065,10371.26322,237.0038452,221.1999969,2.599999905,17.20000076,,,,,,,,,,,,,,,,,
181.8300904,20.72556,73.69916,10366.66693,236.7042847,221.2100067,2.5,17.0,,,,,,,,,,,,,,,,,
182.83122,20.723955,73.69766667,10361.67062,236.6718445,221.2400055,2.5,17.39999962,,,,,,,,,,,,,,,,,
183.8292735,20.72234833,73.69618167,10356.17431,236.1499176,221.1600037,2.5,17.60000038,,,,,,,,,,,,,,,,,
184.8325402,20.72074333,73.69469667,10351.77801,236.7253876,221.1499939,2.5,18.0,,,,,,,,,,,,,,,,,
185.8317046,20.71914,73.69320833,10346.78168,235.9265289,221.2200012,2.400000095,18.60000038,,,,,,,,,,,,,,,,,
186.828235,20.71753667,73.69172167,10340.88536,236.4165497,221.1900024,2.400000095,18.5,,,,,,,,,,,,,,,,,
187.8300388,20.71593333,73.69023167,10334.58904,236.4247894,221.3000031,2.400000095,18.5,,,,,,,,,,,,,,,,,
188.8308126,20.71433167,73.68874167,10328.6927,236.0866089,221.1799927,2.400000095,18.5,,,,,,,,,,,,,,,,,
189.8297342,20.71273167,73.68725167,10322.89636,236.5519257,221.2100067,2.400000095,17.60000038,,,,,,,,,,,,,,,,,
190.830927,20.71112833,73.68576,10316.70003,236.1669159,221.3099976,2.400000095,17.60000038,,,,,,,,,,,,,,,,,
191.8319286,20.709525,73.68427,10310.50369,236.4397125,221.1199951,2.400000095,17.5,,,,,,,,,,,,,,,,,
192.8282307,20.70792,73.68278,10305.20736,236.4325104,221.1600037,2.400000095,17.70000076,,,,,,,,,,,,,,,,,
193.8309673,20.70631667,73.68129,10300.11103,236.3516998,221.1699982,2.400000095,17.89999962,,,,,,,,,,,,,,,,,
194.830104,20.70471333,73.67979833,10294.51469,236.5951538,221.1000061,2.400000095,18.0,,,,,,,,,,,,,,,,,
195.8302225,20.70310833,73.67830833,10289.61835,236.5771484,221.1799927,2.400000095,18.10000038,,,,,,,,,,,,,,,,,
196.8324006,20.701505,73.676815,10284.022,236.3105164,221.1900024,2.400000095,17.60000038,,,,,,,,,,,,,,,,,
197.8336587,20.69989667,73.675325,10277.92568,236.6244965,221.0700073,2.400000095,17.29999924,,,,,,,,,,,,,,,,,
198.8277899,20.69828667,73.67383333,10273.12935,236.6033936,221.0899963,2.400000095,17.60000038,,,,,,,,,,,,,,,,,
199.8292994,20.69667667,73.67234167,10268.53302,236.6955261,220.9900055,2.400000095,17.5,,,,,,,,,,,,,,,,,
200.8314188,20.69506333,73.67085333,10261.53671,236.7011871,221.1000061,2.400000095,17.5,,,,,,,,,,,,,,,,,
201.8314345,20.69345667,73.669355,10256.54036,236.66362,221.1699982,2.5,18.29999924,,,,,,,,,,,,,,,,,
202.8317341,20.69185167,73.66785833,10250.744,236.6764832,221.3300018,2.5,18.79999924,,,,,,,,,,,,,,,,,
203.8312467,20.69024,73.66636,10247.54766,236.9029541,221.2799988,2.299999952,17.20000076,,,,,,,,,,,,,,,,,
204.8279969,20.68863333,73.66486167,10241.25131,236.7444305,221.1000061,2.299999952,17.0,,,,,,,,,,,,,,,,,
205.8294597,20.687025,73.663365,10236.65496,236.741333,221.1799927,2.299999952,16.29999924,,,,,,,,,,,,,,,,,
206.8307359,20.68541667,73.66186667,10232.7586,236.5215454,221.2100067,2.299999952,15.30000019,,,,,,,,,,,,,,,,,
207.8296196,20.68381667,73.66036833,10225.86222,236.4937592,221.4199982,2.400000095,15.69999981,,,,,,,,,,,,,,,,,
208.8312,20.68221333,73.658865,10219.86584,237.6256256,221.2899933,2.400000095,16.5,,,,,,,,,,,,,,,,,
209.8318782,20.680605,73.657365,10213.16947,237.3729095,221.2599945,2.400000095,16.79999924,,,,,,,,,,,,,,,,,
210.82822,20.67899833,73.65587,10204.67311,236.4016266,221.1799927,2.299999952,16.70000076,,,,,,,,,,,,,,,,,
211.8301113,20.67738833,73.65437167,10199.57675,237.634903,221.2700043,2.299999952,16.0,,,,,,,,,,,,,,,,,
212.8305082,20.67577667,73.65287333,10192.8804,237.1124573,221.1600037,2.400000095,17.60000038,,,,,,,,,,,,,,,,,
213.82998,20.67417,73.65138,10183.58403,236.6085358,221.1799927,2.400000095,18.0,,,,,,,,,,,,,,,,,
214.8306492,20.67255833,73.64988333,10175.98767,237.6189423,221.1300049,2.400000095,18.0,,,,,,,,,,,,,,,,,
215.8331456,20.67094167,73.64838667,10167.99133,237.7409363,221.0700073,2.5,18.20000076,,,,,,,,,,,,,,,,,
216.8298882,20.66932667,73.64689167,10159.69499,237.0146637,221.0399933,2.5,16.89999962,,,,,,,,,,,,,,,,,
217.8299252,20.66771,73.64539667,10151.09865,237.6168823,221.0,2.5,17.0,,,,,,,,,,,,,,,,,
218.830624,20.66609167,73.64390333,10143.70231,237.9118195,220.9799957,2.400000095,16.29999924,,,,,,,,,,,,,,,,,
219.8299612,20.66447667,73.64240667,10135.10596,237.2406158,221.1499939,2.400000095,15.69999981,,,,,,,,,,,,,,,,,
220.8311172,20.66286167,73.64090667,10126.3096,237.7532806,221.1699982,2.400000095,16.20000076,,,,,,,,,,,,,,,,,
221.8318068,20.66124667,73.639405,10117.61323,238.2520447,221.1399994,2.400000095,17.0,,,,,,,,,,,,,,,,,
222.8286665,20.65963333,73.637905,10109.21686,237.5731354,221.0899963,2.400000095,17.20000076,,,,,,,,,,,,,,,,,
223.8307575,20.658025,73.63640833,10098.02048,237.4516602,221.0800018,2.299999952,18.29999924,,,,,,,,,,,,,,,,,
224.8308249,20.656415,73.63491167,10088.0241,237.8433533,221.0399933,2.299999952,18.29999924,,,,,,,,,,,,,,,,,
225.8295972,20.65479667,73.633415,10078.52775,237.7347565,221.0500031,2.299999952,17.89999962,,,,,,,,,,,,,,,,,
226.8321326,20.65318,73.63192,10069.23139,237.6225433,221.1100006,2.299999952,17.60000038,,,,,,,,,,,,,,,,,
227.8332994,20.65156333,73.630425,10060.53503,237.4629822,221.0700073,2.400000095,17.89999962,,,,,,,,,,,,,,,,,
228.8285861,20.64994667,73.62893167,10051.03867,237.4439392,221.1399994,2.400000095,18.79999924,,,,,,,,,,,,,,,,,
229.8305384,20.64833333,73.62743333,10042.14229,237.640564,221.1300049,2.400000095,19.60000038,,,,,,,,,,,,,,,,,
230.8313419,20.646715,73.62593667,10033.54592,237.9797668,221.0599976,2.5,19.29999924,,,,,,,,,,,,,,,,,
231.8300276,20.645095,73.62444,10025.14957,237.7316589,221.0899963,2.5,20.0,,,,,,,,,,,,,,,,,
232.8304394,20.64347667,73.62294167,10017.4532,237.8721771,221.0800018,2.5,20.79999924,,,,,,,,,,,,,,,,,
233.8339446,20.64186,73.62144667,10009.75683,237.7007751,221.0700073,2.5,19.70000076,,,,,,,,,,,,,,,,,
234.8285259,20.640235,73.619955,9998.860485,238.2412415,221.0299988,2.400000095,19.39999962,,,,,,,,,,,,,,,,,
235.8312978,20.63862167,73.61845667,9990.764094,237.7975464,221.0200043,2.400000095,19.29999924,,,,,,,,,,,,,,,,,
236.8305834,20.637,73.61696167,9982.367734,238.1274872,220.9299927,2.5,19.10000038,,,,,,,,,,,,,,,,,
237.8291932,20.63537333,73.615465,9973.771387,238.7477264,220.9600067,2.5,19.60000038,,,,,,,,,,,,,,,,,
238.8296939,20.633745,73.61396833,9965.575043,237.9782104,220.9499969,2.599999905,19.5,,,,,,,,,,,,,,,,,
239.8309172,20.63212,73.61247333,9957.478689,237.1284027,221.1999969,2.700000048,20.5,,,,,,,,,,,,,,,,,
240.8283185,20.6305,73.61097833,9949.482316,238.2149811,221.1600037,2.799999952,20.10000038,,,,,,,,,,,,,,,,,
241.830224,20.62887667,73.60948,9941.885948,238.4239655,221.1699982,2.700000048,19.39999962,,,,,,,,,,,,,,,,,
242.8298393,20.62725667,73.60797833,9934.589562,238.2180786,221.1600037,2.700000048,19.60000038,,,,,,,,,,,,,,,,,
243.8296486,20.62563333,73.60647667,9927.793186,238.6349945,221.0,2.700000048,19.39999962,,,,,,,,,,,,,,,,,
244.8297716,20.62400833,73.60497333,9919.596811,239.2012024,221.1199951,2.700000048,20.20000076,,,,,,,,,,,,,,,,,
245.830895,20.62240333,73.60346,9918.300354,238.6967621,221.0899963,2.5,19.39999962,,,,,,,,,,,,,,,,,
246.8281837,20.62078167,73.60195833,9911.103966,238.6653748,221.0700073,2.5,20.20000076,,,,,,,,,,,,,,,,,
247.8297621,20.61914333,73.600465,9903.507645,239.0905304,221.0099945,2.5,20.5,,,,,,,,,,,,,,,,,
248.8308762,20.61751667,73.59896667,9896.411275,238.9443512,220.9100037,2.599999905,20.70000076,,,,,,,,,,,,,,,,,
249.83014,20.615885,73.59746667,9888.614918,240.1266632,220.9900055,2.599999905,21.0,,,,,,,,,,,,,,,,,
250.8313673,20.61425667,73.59595833,9882.418538,239.1054535,221.1000061,2.599999905,20.29999924,,,,,,,,,,,,,,,,,
251.8312686,20.61262333,73.59445667,9874.122181,240.2239532,220.9799957,2.599999905,20.20000076,,,,,,,,,,,,,,,,,
252.8281393,20.61098667,73.592955,9866.225833,239.7890167,220.9199982,2.599999905,19.70000076,,,,,,,,,,,,,,,,,
253.8305006,20.60935,73.59145,9858.82948,240.3341064,220.9400024,2.599999905,20.10000038,,,,,,,,,,,,,,,,,
254.8302899,20.60771,73.58994167,9851.833131,240.9790497,220.8600006,2.599999905,20.5,,,,,,,,,,,,,,,,,
255.8295314,20.60607,73.58843167,9844.636779,240.4931488,220.8899994,2.599999905,22.60000038,,,,,,,,,,,,,,,,,
256.8312637,20.60443167,73.58692167,9836.740419,240.4777069,221.0099945,2.599999905,22.20000076,,,,,,,,,,,,,,,,,
257.8319576,20.60279167,73.58540667,9828.944056,241.1875153,220.9400024,2.599999905,20.60000038,,,,,,,,,,,,,,,,,
258.8295372,20.601145,73.58389167,9820.347714,241.0485382,220.8099976,2.599999905,20.5,,,,,,,,,,,,,,,,,
259.8311499,20.59950167,73.58237667,9811.851359,241.3141327,220.9499969,2.599999905,21.29999924,,,,,,,,,,,,,,,,,
260.8312252,20.597855,73.58086167,9802.655013,241.7264252,220.9799957,2.599999905,21.20000076,,,,,,,,,,,,,,,,,
261.8299738,20.59621167,73.579345,9794.958652,240.6547699,220.9499969,2.599999905,21.29999924,,,,,,,,,,,,,,,,,
262.8302322,20.594565,73.57783333,9786.862307,241.9014282,220.7400055,2.599999905,21.89999962,,,,,,,,,,,,,,,,,
263.8336953,20.592935,73.57631333,9777.465892,241.1952362,221.0700073,2.400000095,21.29999924,,,,,,,,,,,,,,,,,
264.8294018,20.59130333,73.574795,9768.569483,241.1854553,221.0800018,2.400000095,15.60000038,,,,,,,,,,,,,,,,,
265.8304935,20.58966167,73.57328333,9760.773115,241.5447235,220.8000031,2.299999952,15.60000038,,,,,,,,,,,,,,,,,
266.8305599,20.58801167,73.57177167,9753.176773,241.7130432,220.6300049,2.299999952,15.69999981,,,,,,,,,,,,,,,,,
267.8298532,20.58636333,73.57026167,9744.080426,241.5884705,220.9400024,2.299999952,15.30000019,,,,,,,,,,,,,,,,,
268.8315009,20.584715,73.56875167,9734.884078,241.1236877,221.0800018,2.299999952,15.19999981,,,,,,,,,,,,,,,,,
269.8333252,20.58307667,73.56723667,9723.387686,241.4762726,221.1399994,2.299999952,16.0,,,,,,,,,,,,,,,,,
270.8295609,20.58144333,73.56571833,9710.091272,241.1262512,221.1499939,2.299999952,16.5,,,,,,,,,,,,,,,,,
271.8305646,20.5798,73.5642,9700.494889,241.7217865,221.0299988,2.400000095,18.0,,,,,,,,,,,,,,,,,
272.830492,20.578155,73.56268,9691.498508,241.1797943,220.9299927,2.5,18.79999924,,,,,,,,,,,,,,,,,
273.8302785,20.57652,73.56116667,9681.5021,240.3016663,221.0200043,2.5,19.5,,,,,,,,,,,,,,,,,
274.8309596,20.57488333,73.55965,9672.505691,241.6914215,221.1999969,2.599999905,19.39999962,,,,,,,,,,,,,,,,,
275.8327563,20.57325333,73.55813167,9664.209256,241.2338409,221.1600037,2.5,18.79999924,,,,,,,,,,,,,,,,,
276.8296963,20.57161333,73.55661667,9654.212857,241.2533875,221.0500031,2.599999905,19.10000038,,,,,,,,,,,,,,,,,
277.8306966,20.56997667,73.55509833,9645.91644,241.4628906,221.0299988,2.599999905,19.79999924,,,,,,,,,,,,,,,,,
278.8303791,20.56833667,73.55358,9637.420033,241.4263458,221.1000061,2.599999905,18.5,,,,,,,,,,,,,,,,,
279.8299468,20.56669667,73.55205333,9629.323613,242.0970306,221.1499939,2.599999905,19.10000038,,,,,,,,,,,,,,,,,
280.830883,20.56504833,73.55054,9621.327237,240.9394073,221.0200043,2.700000048,19.89999962,,,,,,,,,,,,,,,,,
281.8321839,20.56340833,73.54902,9612.230821,241.3836212,221.0800018,2.799999952,21.0,,,,,,,,,,,,,,,,,
282.8288772,20.561765,73.54749833,9604.034413,241.5354614,221.1000061,2.900000095,21.79999924,,,,,,,,,,,,,,,,,
283.8313517,20.56012333,73.54598,9594.738002,241.8365784,221.0399933,2.799999952,22.10000038,,,,,,,,,,,,,,,,,
284.8309059,20.55848,73.54446333,9585.941597,242.225708,221.0899963,2.799999952,22.10000038,,,,,,,,,,,,,,,,,
285.8296662,20.55683833,73.54294333,9578.74518,241.5184784,221.0899963,2.799999952,21.0,,,,,,,,,,,,,,,,,
286.832772,20.55519833,73.54142667,9571.54876,241.3635406,221.1600037,2.799999952,21.0,,,,,,,,,,,,,,,,,
287.8325437,20.55356333,73.539905,9564.152314,241.0191956,221.25,2.700000048,21.60000038,,,,,,,,,,,,,,,,,
288.828756,20.55193167,73.53838333,9557.355855,241.1092682,221.1499939,2.700000048,23.39999962,,,,,,,,,,,,,,,,,
289.8332212,20.55029167,73.53686667,9549.959429,241.4798737,220.9799957,2.700000048,21.39999962,,,,,,,,,,,,,,,,,
290.8317428,20.54865167,73.535345,9543.162994,241.450531,221.2400055,2.700000048,21.20000076,,,,,,,,,,,,,,,,,
291.8301262,20.54701,73.53382667,9535.166568,241.1159668,221.1699982,2.700000048,21.20000076,,,,,,,,,,,,,,,,,
292.8314221,20.54536667,73.53231,9527.770147,241.4330292,221.0399933,2.700000048,21.10000038,,,,,,,,,,,,,,,,,
293.8321089,20.543725,73.53078833,9521.473712,241.8674622,221.0099945,2.599999905,20.29999924,,,,,,,,,,,,,,,,,
294.8286987,20.54208,73.52926833,9514.177289,241.8751831,221.0299988,2.599999905,20.89999962,,,,,,,,,,,,,,,,,
295.8306322,20.54043667,73.527745,9507.180854,242.5041656,221.1900024,2.599999905,20.29999924,,,,,,,,,,,,,,,,,
296.8328144,20.53879167,73.52622,9498.984421,241.6672363,221.0500031,2.599999905,20.20000076,,,,,,,,,,,,,,,,,
297.830023,20.53714833,73.52469833,9490.987984,241.6420135,220.9499969,2.599999905,20.0,,,,,,,,,,,,,,,,,
298.8334239,20.535515,73.52317167,9484.991505,241.4366302,221.1900024,2.599999905,19.20000076,,,,,,,,,,,,,,,,,
299.8343329,20.533875,73.521645,9477.295046,241.8690033,221.1799927,2.599999905,18.89999962,,,,,,,,,,,,,,,,,
300.8294649,20.53223167,73.520125,9469.398606,241.4870758,221.1399994,2.599999905,19.10000038,,,,,,,,,,,,,,,,,
301.8307519,20.530585,73.51860667,9461.102178,241.9575348,220.9600067,2.599999905,19.5,,,,,,,,,,,,,,,,,
302.8313427,20.52894,73.51708333,9452.705735,241.6955414,221.0700073,2.599999905,18.89999962,,,,,,,,,,,,,,,,,
303.8331793,20.52730167,73.51556,9445.809267,241.787674,221.1600037,2.599999905,19.5,,,,,,,,,,,,,,,,,
304.8332024,20.52566333,73.514035,9437.412796,241.4062653,221.2400055,2.599999905,20.0,,,,,,,,,,,,,,,,,
305.8324449,20.52402167,73.51251333,9428.716338,241.2796478,221.1199951,2.599999905,20.20000076,,,,,,,,,,,,,,,,,
306.828999,20.52238,73.51099167,9421.119878,241.4690552,221.1799927,2.599999905,19.89999962,,,,,,,,,,,,,,,,,
307.8303215,20.52073667,73.50947167,9412.723425,241.2117004,221.1499939,2.5,20.60000038,,,,,,,,,,,,,,,,,
308.8310582,20.51909,73.50795167,9403.62698,242.0342255,221.1300049,2.599999905,20.5,,,,,,,,,,,,,,,,,
309.8300843,20.51744333,73.50643167,9395.230534,241.6867828,221.1300049,2.5,21.0,,,,,,,,,,,,,,,,,
310.8316818,20.51580333,73.50491167,9387.634064,240.9286041,221.1300049,2.599999905,20.29999924,,,,,,,,,,,,,,,,,
311.8326019,20.51415833,73.50339833,9378.337617,241.6090698,221.0899963,2.599999905,20.20000076,,,,,,,,,,,,,,,,,
312.830571,20.51251167,73.50188167,9369.841169,241.3748627,221.0800018,2.599999905,20.79999924,,,,,,,,,,,,,,,,,
313.8301587,20.51086833,73.500365,9361.944708,241.5138397,221.0200043,2.599999905,20.89999962,,,,,,,,,,,,,,,,,
314.8321276,20.50923667,73.49884667,9351.24746,241.254425,220.8999939,2.400000095,18.60000038,,,,,,,,,,,,,,,,,
315.8333846,20.5076,73.49732667,9346.149989,240.9353027,221.0599976,2.400000095,18.20000076,,,,,,,,,,,,,,,,,
316.8323132,20.505965,73.49580667,9340.152513,241.0989838,221.1999969,2.299999952,18.70000076,,,,,,,,,,,,,,,,,
317.8321096,20.50432667,73.49429,9330.855054,241.1205902,220.9900055,2.299999952,18.20000076,,,,,,,,,,,,,,,,,
318.831199,20.50268833,73.49277667,9322.557601,240.5456543,221.0099945,2.200000048,18.70000076,,,,,,,,,,,,,,,,,
319.8311922,20.50105167,73.491265,9312.060146,240.5600586,220.9900055,2.200000048,18.79999924,,,,,,,,,,,,,,,,,
320.830531,20.49940833,73.48975667,9304.863256,240.4421844,220.8999939,2.200000048,17.29999924,,,,,,,,,,,,,,,,,
321.8310437,20.497765,73.48825167,9296.867328,240.2095337,220.8999939,2.299999952,18.0,,,,,,,,,,,,,,,,,
322.8307117,20.49612333,73.486745,9287.871391,239.6876068,221.0500031,3.0,16.10000038,,,,,,,,,,,,,,,,,
323.831715,20.494505,73.48522333,9280.275328,239.6716461,221.0099945,3.099999905,15.5,,,,,,,,,,,,,,,,,
324.8322286,20.49288167,73.48371,9271.379305,239.7081909,221.2599945,3.0,16.29999924,,,,,,,,,,,,,,,,,
325.830419,20.49125667,73.48218833,9260.783275,239.811142,221.2899933,2.900000095,17.20000076,,,,,,,,,,,,,,,,,
326.8304682,20.48963,73.480675,9250.287272,239.1054535,220.9499969,2.799999952,17.5,,,,,,,,,,,,,,,,,
327.8317236,20.488,73.47917167,9240.091306,239.1363373,221.0899963,2.799999952,18.20000076,,,,,,,,,,,,,,,,,
328.8305636,20.48637333,73.47766833,9229.595328,239.0982513,220.8699951,2.700000048,18.60000038,,,,,,,,,,,,,,,,,
329.8334465,20.48473833,73.47617167,9216.799402,238.7786102,220.8200073,2.700000048,19.20000076,,,,,,,,,,,,,,,,,
330.8306905,20.48310667,73.47468333,9203.00348,239.1095734,220.9299927,2.599999905,19.5,,,,,,,,,,,,,,,,,
331.8297468,20.48147667,73.47318333,9189.107531,239.5321655,220.8699951,2.599999905,19.70000076,,,,,,,,,,,,,,,,,
332.8326387,20.479845,73.47168167,9176.411589,239.4204712,220.8899994,2.5,17.60000038,,,,,,,,,,,,,,,,,
333.8321225,20.47821,73.47018667,9162.315677,238.8712616,220.8699951,2.400000095,16.89999962,,,,,,,,,,,,,,,,,
334.8300716,20.47658167,73.46869167,9149.519738,238.3966827,220.8699951,2.400000095,16.5,,,,,,,,,,,,,,,,,
335.8319089,20.47495333,73.46719333,9140.523796,238.6082306,220.8200073,2.299999952,15.39999962,,,,,,,,,,,,,,,,,
336.8308252,20.47333,73.465695,9129.527835,237.868576,221.0599976,2.299999952,15.30000019,,,,,,,,,,,,,,,,,
337.8303519,20.47171,73.4642,9114.331869,238.0559387,221.0099945,2.299999952,14.39999962,,,,,,,,,,,,,,,,,
338.8299095,20.47009167,73.46270333,9097.435896,237.6982117,221.1000061,2.400000095,14.60000038,,,,,,,,,,,,,,,,,
339.8336796,20.46847667,73.46120167,9080.0399,237.6662903,220.9299927,3.0,15.5,,,,,,,,,,,,,,,,,
340.8307797,20.46685667,73.45971167,9060.743952,237.7553406,220.8300018,2.900000095,15.30000019,,,,,,,,,,,,,,,,,
341.8312157,20.465235,73.458225,9040.64802,237.7306366,220.9299927,2.799999952,15.80000019,,,,,,,,,,,,,,,,,
342.8300236,20.46361667,73.45673333,9020.652067,237.9437256,220.8200073,2.799999952,16.79999924,,,,,,,,,,,,,,,,,
343.8300231,20.462,73.45523333,9000.356093,238.1949158,221.1300049,2.799999952,17.79999924,,,,,,,,,,,,,,,,,
344.8302674,20.46038167,73.453735,8978.560132,238.0502777,221.0599976,2.700000048,17.39999962,,,,,,,,,,,,,,,,,
345.8325594,20.45876167,73.45223667,8956.164181,238.147049,221.0200043,2.700000048,16.20000076,,,,,,,,,,,,,,,,,
346.8304009,20.45714167,73.45074167,8932.868239,238.2927094,221.0800018,2.599999905,16.5,,,,,,,,,,,,,,,,,
347.8317883,20.45551833,73.449245,8909.772311,238.3796997,221.0500031,2.599999905,17.0,,,,,,,,,,,,,,,,,
348.8307021,20.453895,73.44774833,8886.076385,238.7014008,221.0,2.599999905,16.89999962,,,,,,,,,,,,,,,,,
349.8317868,20.452265,73.44625167,8862.480491,239.0565643,220.9400024,2.5,17.29999924,,,,,,,,,,,,,,,,,
350.8310763,20.450635,73.44475333,8840.184597,239.0447235,221.0200043,2.5,17.60000038,,,,,,,,,,,,,,,,,
351.8321904,20.44899,73.44326,8820.188779,239.3020782,220.9199982,2.400000095,16.20000076,,,,,,,,,,,,,,,,,
352.8324818,20.44735833,73.44176167,8800.192897,239.4539185,220.9499969,2.400000095,16.0,,,,,,,,,,,,,,,,,
353.8319668,20.44572,73.44027167,8777.697063,239.5841522,220.8000031,2.299999952,15.60000038,,,,,,,,,,,,,,,,,
354.8309993,20.444085,73.43877667,8759.501207,239.426651,220.8600006,2.200000048,14.30000019,,,,,,,,,,,,,,,,,
355.8309939,20.44245833,73.43727333,8741.205302,239.5419464,221.0500031,2.200000048,14.0,,,,,,,,,,,,,,,,,
356.8329462,20.44083,73.43577167,8724.90941,239.2135468,220.9700012,2.200000048,13.80000019,,,,,,,,,,,,,,,,,
357.8331185,20.43920333,73.43427167,8711.313517,238.8903046,221.0,2.299999952,14.80000019,,,,,,,,,,,,,,,,,
358.8331972,20.43757667,73.43277667,8697.617636,238.4867554,220.8500061,2.299999952,15.10000038,,,,,,,,,,,,,,,,,
359.8338679,20.435955,73.43128167,8686.021736,238.2932281,221.0099945,2.299999952,15.69999981,,,,,,,,,,,,,,,,,
360.8308018,20.434335,73.42978667,8675.425831,237.8340912,220.9400024,2.400000095,15.69999981,,,,,,,,,,,,,,,,,
361.8309344,20.43271833,73.42828833,8667.329909,237.8412933,221.1000061,2.400000095,16.10000038,,,,,,,,,,,,,,,,,
362.8313615,20.43111,73.42678667,8660.333946,237.0944366,221.2100067,2.299999952,15.19999981,,,,,,,,,,,,,,,,,
363.8324086,20.42950167,73.42529833,8651.538013,236.5982513,221.0599976,2.200000048,15.19999981,,,,,,,,,,,,,,,,,
364.8315058,20.42789167,73.423815,8644.242098,236.0907288,220.9900055,2.299999952,15.60000038,,,,,,,,,,,,,,,,,
365.8331677,20.42628667,73.42233667,8637.546175,235.4756317,220.9499969,2.299999952,14.39999962,,,,,,,,,,,,,,,,,
366.8312347,20.424685,73.42085667,8631.250236,235.0937195,221.1399994,2.299999952,14.89999962,,,,,,,,,,,,,,,,,
367.8321093,20.42309333,73.419385,8623.654273,233.7816925,221.0899963,2.299999952,16.10000038,,,,,,,,,,,,,,,,,
368.8306431,20.421505,73.41791333,8616.558298,234.5794983,221.1699982,2.299999952,13.60000038,,,,,,,,,,,,,,,,,
369.8317141,20.419915,73.41643833,8610.162326,233.6586609,221.1100006,2.299999952,13.60000038,,,,,,,,,,,,,,,,,
370.8306566,20.41833333,73.41497,8603.566334,232.1469269,221.2400055,2.299999952,14.19999981,,,,,,,,,,,,,,,,,
371.8317606,20.41675667,73.41350667,8596.370332,232.1438446,221.1999969,2.299999952,15.5,,,,,,,,,,,,,,,,,
372.8312732,20.41518333,73.41204,8592.674312,231.4211731,221.2400055,2.299999952,16.0,,,,,,,,,,,,,,,,,
373.8318846,20.413625,73.41057667,8585.278236,230.6593781,221.3300018,2.200000048,16.60000038,,,,,,,,,,,,,,,,,
374.8308194,20.41206,73.40911667,8578.682198,230.4128265,221.2899933,2.299999952,17.60000038,,,,,,,,,,,,,,,,,
375.8334818,20.4105,73.40766833,8571.786163,229.6253052,221.3300018,2.299999952,18.60000038,,,,,,,,,,,,,,,,,
376.8309265,20.40894333,73.40622167,8564.790119,229.2979431,221.2400055,2.400000095,19.0,,,,,,,,,,,,,,,,,
377.8315323,20.407385,73.40477833,8557.194092,228.6010132,221.1900024,2.400000095,19.20000076,,,,,,,,,,,,,,,,,
378.8319233,20.40583833,73.40333167,8553.19801,228.2705536,221.2700043,2.299999952,16.70000076,,,,,,,,,,,,,,,,,
379.8311061,20.40429167,73.40189667,8546.801953,227.3945007,221.1900024,2.299999952,15.69999981,,,,,,,,,,,,,,,,,
380.8307596,20.40275333,73.400465,8541.005868,226.4808655,221.0800018,2.299999952,15.60000038,,,,,,,,,,,,,,,,,
381.8320169,20.40122167,73.39903667,8535.309764,226.1324005,221.3899994,2.200000048,15.39999962,,,,,,,,,,,,,,,,,
382.8320022,20.39969,73.39760833,8528.613662,226.0196686,221.3500061,2.299999952,14.5,,,,,,,,,,,,,,,,,
383.8334597,20.39817,73.396185,8525.617521,224.2289581,221.2299957,2.200000048,14.39999962,,,,,,,,,,,,,,,,,
384.8318585,20.39665,73.39476833,8524.121396,224.3282928,221.3500061,2.200000048,14.10000038,,,,,,,,,,,,,,,,,
385.8325883,20.395135,73.39335667,8518.625261,222.91745,221.3899994,2.200000048,14.89999962,,,,,,,,,,,,,,,,,
386.8318683,20.39362333,73.39194667,8513.029117,222.926712,221.2700043,2.299999952,15.5,,,,,,,,,,,,,,,,,
387.8320173,20.392115,73.39054333,8507.032974,222.2972107,221.4700012,2.299999952,16.0,,,,,,,,,,,,,,,,,
388.8332058,20.39061667,73.389135,8501.336779,221.7428436,221.4900055,2.299999952,16.39999962,,,,,,,,,,,,,,,,,
389.8319151,20.38911833,73.38773667,8495.040607,220.6763458,221.25,2.299999952,16.89999962,,,,,,,,,,,,,,,,,
390.8315178,20.387625,73.38634667,8488.444431,220.0627899,221.3800049,2.299999952,15.89999962,,,,,,,,,,,,,,,,,
391.8308622,20.386135,73.38495667,8481.748243,220.0252228,221.3200073,2.299999952,16.10000038,,,,,,,,,,,,,,,,,
392.8318375,20.38464667,73.38357167,8475.352059,219.3514557,221.2700043,2.299999952,16.20000076,,,,,,,,,,,,,,,,,
393.8325243,20.38316667,73.38218667,8468.955842,218.804306,221.3699951,2.299999952,16.60000038,,,,,,,,,,,,,,,,,
394.8317616,20.38169,73.38080667,8462.459621,218.1608887,221.3000031,2.299999952,15.60000038,,,,,,,,,,,,,,,,,
395.833391,20.38021833,73.37942833,8456.363385,217.4068298,221.4199982,2.400000095,15.80000019,,,,,,,,,,,,,,,,,
396.8317902,20.37875,73.37805667,8449.767149,216.5693817,221.3500061,2.400000095,16.0,,,,,,,,,,,,,,,,,
397.8306031,20.37727833,73.37669167,8444.570942,216.5467224,221.1999969,2.400000095,15.89999962,,,,,,,,,,,,,,,,,
398.8332919,20.37580333,73.37533167,8438.874762,215.9712677,221.1399994,2.400000095,16.60000038,,,,,,,,,,,,,,,,,
399.8343228,20.37434167,73.37397333,8432.078529,215.1971283,221.2700043,2.299999952,16.10000038,,,,,,,,,,,,,,,,,
400.8338926,20.37288333,73.37261667,8425.482287,214.4940186,221.3000031,2.299999952,16.29999924,,,,,,,,,,,,,,,,,
401.8345393,20.37142167,73.37126667,8418.486074,214.7343903,220.9600067,2.299999952,16.60000038,,,,,,,,,,,,,,,,,
402.8335194,20.36996,73.36992333,8411.789877,214.091507,221.0500031,2.299999952,15.89999962,,,,,,,,,,,,,,,,,
403.8339858,20.36850667,73.36858,8404.793645,212.9313202,221.1199951,2.299999952,16.5,,,,,,,,,,,,,,,,,
404.8332519,20.36707,73.36724,8394.897349,212.7305756,221.1399994,2.299999952,16.60000038,,,,,,,,,,,,,,,,,
405.8324794,20.36562333,73.36590833,8387.301115,211.802536,221.0099945,2.299999952,15.89999962,,,,,,,,,,,,,,,,,
406.8322584,20.36419,73.36458167,8378.604834,211.5770874,221.1499939,2.200000048,16.10000038,,,,,,,,,,,,,,,,,
407.8325009,20.36275167,73.363255,8372.008577,211.044342,220.8999939,2.299999952,14.39999962,,,,,,,,,,,,,,,,,
408.8335966,20.36131667,73.36193333,8365.612317,210.7746277,221.0599976,2.299999952,14.89999962,,,,,,,,,,,,,,,,,
409.8322231,20.35988667,73.360615,8359.316044,210.0046082,221.0299988,2.299999952,15.60000038,,,,,,,,,,,,,,,,,
410.8321486,20.35846,73.35930167,8351.719767,209.22995,221.0899963,2.299999952,16.5,,,,,,,,,,,,,,,,,
411.8335396,20.357035,73.35799167,8344.223492,209.058548,221.0200043,2.299999952,17.39999962,,,,,,,,,,,,,,,,,
412.8328929,20.35561167,73.35668333,8336.827215,208.8207397,220.9400024,2.400000095,17.20000076,,,,,,,,,,,,,,,,,
413.8323963,20.35418833,73.355375,8330.23094,208.1433716,220.8099976,2.400000095,17.89999962,,,,,,,,,,,,,,,,,
414.8321255,20.35277667,73.35406667,8318.934616,208.1670532,220.9499969,2.299999952,17.60000038,,,,,,,,,,,,,,,,,
415.8331357,20.35136833,73.35275333,8312.03827,207.5164337,220.8800049,2.200000048,17.89999962,,,,,,,,,,,,,,,,,
416.8332695,20.34995833,73.35144833,8304.34195,207.087677,221.0500031,2.200000048,17.79999924,,,,,,,,,,,,,,,,,
417.8345603,20.34854833,73.35015,8297.345644,206.6239166,220.9400024,2.200000048,17.39999962,,,,,,,,,,,,,,,,,
418.8316806,20.34714667,73.34885667,8288.649313,205.6227722,220.9700012,2.200000048,17.60000038,,,,,,,,,,,,,,,,,
419.8331984,20.345745,73.34757,8281.452996,205.5898285,220.9100037,2.200000048,20.70000076,,,,,,,,,,,,,,,,,
420.832679,20.34434833,73.34628333,8273.45666,204.9273834,220.8600006,2.200000048,20.5,,,,,,,,,,,,,,,,,
421.8336027,20.34295167,73.34500333,8267.760338,204.4667053,220.9499969,2.099999905,20.10000038,,,,,,,,,,,,,,,,,
422.8324536,20.34155833,73.34372667,8261.064011,204.0703735,220.8999939,2.099999905,19.5,,,,,,,,,,,,,,,,,
423.8334311,20.340165,73.34245667,8254.167697,203.532486,220.7599945,2.200000048,19.5,,,,,,,,,,,,,,,,,
424.8318188,20.338775,73.34119167,8247.071381,203.1680603,220.6499939,2.200000048,19.5,,,,,,,,,,,,,,,,,
425.8323523,20.33738333,73.33992833,8238.975077,202.8865204,220.8800049,2.200000048,19.0,,,,,,,,,,,,,,,,,
426.8331516,20.33600167,73.338665,8230.978731,202.6018677,220.8300018,2.200000048,19.70000076,,,,,,,,,,,,,,,,,
427.8329705,20.33462,73.33740167,8223.282387,201.9301605,220.8300018,2.200000048,19.5,,,,,,,,,,,,,,,,,
428.8318576,20.33324333,73.33614667,8215.286039,201.4298553,220.8600006,2.200000048,19.29999924,,,,,,,,,,,,,,,,,
429.8335582,20.33187,73.33488833,8207.789671,201.2697754,220.8200073,2.200000048,19.29999924,,,,,,,,,,,,,,,,,
430.8336276,20.3305,73.33362833,8200.893288,200.7154083,220.9499969,2.200000048,19.79999924,,,,,,,,,,,,,,,,,
431.8320988,20.32913167,73.33237167,8194.496906,200.337616,220.7599945,2.200000048,19.60000038,,,,,,,,,,,,,,,,,
432.8317216,20.327765,73.33112,8188.400528,199.9103851,220.7799988,2.200000048,20.0,,,,,,,,,,,,,,,,,
433.8311123,20.3264,73.32987333,8181.604154,199.5706787,220.8699951,2.200000048,19.0,,,,,,,,,,,,,,,,,
434.8317985,20.32503833,73.32862667,8175.007768,199.2185974,220.7299957,2.299999952,18.79999924,,,,,,,,,,,,,,,,,
435.8334769,20.32368,73.32738167,8169.511371,198.6925507,220.7400055,2.299999952,18.79999924,,,,,,,,,,,,,,,,,
436.8317059,20.32232333,73.32614,8164.214976,198.0712891,220.6999969,2.299999952,19.0,,,,,,,,,,,,,,,,,
437.8328059,20.32097,73.3249,8158.518571,197.915329,220.7200012,2.299999952,19.5,,,,,,,,,,,,,,,,,
438.8331741,20.31962167,73.323665,8153.022155,197.6384125,220.7599945,2.299999952,20.20000076,,,,,,,,,,,,,,,,,
439.8326575,20.31826333,73.32243833,8146.525801,197.2781067,220.6699982,2.200000048,20.0,,,,,,,,,,,,,,,,,
440.8317822,20.31691333,73.32120833,8140.529405,196.7319794,220.75,2.200000048,20.10000038,,,,,,,,,,,,,,,,,
441.8325529,20.31557167,73.31996833,8138.032956,196.7082977,220.6000061,2.200000048,19.70000076,,,,,,,,,,,,,,,,,
442.8323077,20.31422667,73.31874167,8131.736549,196.0386505,220.6600037,2.200000048,19.10000038,,,,,,,,,,,,,,,,,
443.8334299,20.31289,73.31751167,8128.340101,195.8826904,220.7200012,2.099999905,18.5,,,,,,,,,,,,,,,,,
444.8319083,20.31155667,73.31628333,8124.243643,194.8970032,220.7100067,2.099999905,18.39999962,,,,,,,,,,,,,,,,,
445.8336058,20.310225,73.315065,8117.847198,194.6252289,220.8500061,2.099999905,17.5,,,,,,,,,,,,,,,,,
446.8334563,20.30889833,73.31385,8111.950739,194.3539581,220.8399963,2.200000048,17.79999924,,,,,,,,,,,,,,,,,
447.8316473,20.30757333,73.31263667,8106.054278,193.7393799,220.75,2.200000048,18.39999962,,,,,,,,,,,,,,,,,
448.8321588,20.30625167,73.31142667,8104.05781,193.3023834,220.7400055,2.099999905,17.5,,,,,,,,,,,,,,,,,
449.8335516,20.30493167,73.31022,8101.261343,193.0167084,220.8000031,2.099999905,17.5,,,,,,,,,,,,,,,,,
450.833012,20.303615,73.309015,8095.664867,192.4381714,220.9600067,2.099999905,17.79999924,,,,,,,,,,,,,,,,,
451.8321196,20.30230167,73.30781,8092.168377,192.0099182,220.8800049,2.0,17.5,,,,,,,,,,,,,,,,,
452.8318218,20.30099167,73.30661167,8088.871887,191.6964569,220.8500061,2.0,17.29999924,,,,,,,,,,,,,,,,,
453.8332569,20.29968167,73.30541667,8083.175405,191.2949677,220.8300018,2.0,17.79999924,,,,,,,,,,,,,,,,,
454.8324566,20.29837833,73.30422167,8077.578895,190.8276062,220.8899994,2.0,16.79999924,,,,,,,,,,,,,,,,,
455.8336476,20.29707833,73.30302833,8071.982376,190.3314056,220.8399963,2.099999905,16.79999924,,,,,,,,,,,,,,,,,
456.8326092,20.29578333,73.30183833,8064.685842,190.009201,220.8600006,2.0,16.5,,,,,,,,,,,,,,,,,
457.8331428,20.29448833,73.30065,8059.489314,189.7945557,220.8800049,2.099999905,17.20000076,,,,,,,,,,,,,,,,,
458.8327985,20.293195,73.299465,8052.892786,189.1115112,220.8800049,2.099999905,17.60000038,,,,,,,,,,,,,,,,,
459.8323587,20.29190333,73.29828333,8045.896258,188.7311401,220.8399963,2.200000048,17.39999962,,,,,,,,,,,,,,,,,
460.8315311,20.29061667,73.297105,8039.499717,188.3656921,220.8399963,2.200000048,17.39999962,,,,,,,,,,,,,,,,,
461.831865,20.28933,73.29593,8032.803183,188.1026611,220.7100067,2.299999952,18.20000076,,,,,,,,,,,,,,,,,
462.8316019,20.288045,73.29475833,8026.90665,187.4314575,220.8999939,2.299999952,18.39999962,,,,,,,,,,,,,,,,,
463.8319533,20.28677,73.293585,8021.110071,187.2451324,220.8800049,2.400000095,18.39999962,,,,,,,,,,,,,,,,,
464.8320019,20.28550167,73.29241333,8016.213468,186.5116577,221.0099945,2.400000095,17.20000076,,,,,,,,,,,,,,,,,
465.8347234,20.28425167,73.29124333,8013.116789,185.7503815,221.1399994,2.299999952,16.5,,,,,,,,,,,,,,,,,
466.8328744,20.28298333,73.29007667,8006.520199,186.5677643,220.8899994,2.299999952,17.0,,,,,,,,,,,,,,,,,
467.8332613,20.28172,73.28891167,8000.623591,185.1239624,221.0700073,2.299999952,17.20000076,,,,,,,,,,,,,,,,,
468.8318126,20.28046,73.28774833,7992.626973,185.0987396,221.0099945,2.200000048,17.20000076,,,,,,,,,,,,,,,,,
469.831585,20.2792,73.28659,7985.830366,185.0755768,220.9700012,2.299999952,17.39999962,,,,,,,,,,,,,,,,,
470.8329034,20.27794167,73.28543167,7979.133754,184.7543945,221.0399933,2.299999952,17.10000038,,,,,,,,,,,,,,,,,
471.8349105,20.27668833,73.284275,7969.237124,184.3503418,220.9700012,2.200000048,16.0,,,,,,,,,,,,,,,,,
472.8322403,20.27542833,73.28312167,7961.440531,184.8465271,220.7700043,2.200000048,15.60000038,,,,,,,,,,,,,,,,,
473.8347686,20.27416833,73.28197,7953.943943,184.0775299,220.8699951,2.200000048,15.89999962,,,,,,,,,,,,,,,,,
474.8322745,20.27291333,73.28082,7945.747337,183.7259827,220.8999939,2.200000048,15.89999962,,,,,,,,,,,,,,,,,
475.8333704,20.27165667,73.27967,7936.650741,184.2396698,220.7700043,2.200000048,16.20000076,,,,,,,,,,,,,,,,,
476.8319446,20.27040167,73.27852333,7926.154145,183.2266998,221.0099945,2.200000048,14.80000019,,,,,,,,,,,,,,,,,
477.8336468,20.26915,73.277375,7917.557533,183.4747925,220.9299927,2.200000048,14.89999962,,,,,,,,,,,,,,,,,
478.833184,20.26789833,73.27622833,7908.460925,183.2421417,220.9199982,2.200000048,15.60000038,,,,,,,,,,,,,,,,,
479.8320052,20.26664667,73.27508167,7899.764319,182.9652252,220.7599945,2.299999952,16.60000038,,,,,,,,,,,,,,,,,
480.831979,20.26540167,73.273935,7890.967686,183.338913,220.8300018,2.200000048,16.60000038,,,,,,,,,,,,,,,,,
481.8344723,20.26414833,73.27279333,7882.371099,182.8360291,220.8099976,2.200000048,15.39999962,,,,,,,,,,,,,,,,,
482.8324625,20.2629,73.271655,7874.674499,182.6718292,220.5800018,2.099999905,15.30000019,,,,,,,,,,,,,,,,,
483.8351326,20.26164833,73.27052,7865.977921,182.7799225,220.4799957,2.099999905,15.30000019,,,,,,,,,,,,,,,,,
484.8327037,20.26038833,73.269395,7856.6814,182.3490906,219.9299927,2.099999905,15.80000019,,,,,,,,,,,,,,,,,
485.8336354,20.25912,73.26828167,7847.484938,182.8807983,219.3500061,2.200000048,16.0,,,,,,,,,,,,,,,,,
486.8322185,20.25784,73.26718,7838.188551,182.453064,218.75,2.200000048,15.89999962,,,,,,,,,,,,,,,,,
487.8317815,20.25654167,73.26609833,7828.092284,182.7686005,217.8300018,2.200000048,16.39999962,,,,,,,,,,,,,,,,,
488.8331978,20.25524,73.26503833,7817.796073,182.098938,216.9600067,2.200000048,16.5,,,,,,,,,,,,,,,,,
489.8326093,20.253915,73.26401,7808.300025,182.1272583,216.1100006,2.200000048,17.29999924,,,,,,,,,,,,,,,,,
490.8329293,20.25258833,73.262985,7798.403991,182.5843201,215.0700073,2.900000095,17.39999962,,,,,,,,,,,,,,,,,
491.8330982,20.25123333,73.26199833,7789.108155,182.3074036,213.7799988,2.900000095,13.0,,,,,,,,,,,,,,,,,
492.8327425,20.24985667,73.26104667,7777.912481,182.2801208,212.6399994,2.799999952,13.69999981,,,,,,,,,,,,,,,,,
493.8315643,20.24846333,73.26012667,7766.11694,181.3948059,211.4199982,2.799999952,14.30000019,,,,,,,,,,,,,,,,,
494.8322976,20.24705167,73.25923833,7755.22154,181.744812,210.0599976,2.799999952,14.69999981,,,,,,,,,,,,,,,,,
495.8340203,20.24561667,73.25838833,7744.626314,181.9414368,208.6199951,2.799999952,15.69999981,,,,,,,,,,,,,,,,,
496.8334517,20.244165,73.25757333,7733.631228,181.780838,207.3500061,2.700000048,16.60000038,,,,,,,,,,,,,,,,,
497.8318975,20.2427,73.25679667,7722.536273,181.0921478,206.0500031,2.799999952,17.39999962,,,,,,,,,,,,,,,,,
498.8321646,20.24122167,73.25605333,7711.741439,181.2069244,204.8899994,2.799999952,17.10000038,,,,,,,,,,,,,,,,,
499.8312126,20.239725,73.255345,7701.046751,181.3948059,203.4499969,2.700000048,17.0,,,,,,,,,,,,,,,,,
500.832137,20.23822,73.25467833,7691.252178,180.5645599,201.9100037,2.799999952,17.60000038,,,,,,,,,,,,,,,,,
501.8322859,20.2367,73.25405,7679.557743,181.2388458,200.8399963,2.799999952,17.5,,,,,,,,,,,,,,,,,
502.8317739,20.23517,73.253455,7668.563414,180.7174225,199.7100067,2.799999952,17.79999924,,,,,,,,,,,,,,,,,
503.8322156,20.23363167,73.25289,7660.269178,180.7153625,198.5500031,2.799999952,18.60000038,,,,,,,,,,,,,,,,,
504.8326579,20.232085,73.252355,7652.375035,180.2603607,197.6399994,2.799999952,19.39999962,,,,,,,,,,,,,,,,,
505.8331996,20.230535,73.25184167,7648.780947,180.2948456,197.3000031,2.700000048,16.70000076,,,,,,,,,,,,,,,,,
506.8317582,20.22897833,73.25134333,7644.486917,180.2639618,196.7700043,2.599999905,16.20000076,,,,,,,,,,,,,,,,,
507.8326988,20.22741667,73.25086,7637.492937,179.8387909,196.3999939,2.5,16.0,,,,,,,,,,,,,,,,,
508.832001,20.22586167,73.25037833,7630.898932,179.7173157,196.1199951,2.599999905,16.70000076,,,,,,,,,,,,,,,,,
509.831836,20.224305,73.24991333,7623.904965,179.3781281,195.6199951,2.599999905,17.0,,,,,,,,,,,,,,,,,
510.8317471,20.22274167,73.24946333,7616.911056,179.3390045,195.2899933,2.599999905,17.89999962,,,,,,,,,,,,,,,,,
511.8317868,20.22117833,73.249015,7606.317151,179.006485,195.5099945,2.599999905,18.5,,,,,,,,,,,,,,,,,
512.8317467,20.21962167,73.24856167,7594.723208,179.1289978,195.1699982,2.599999905,18.89999962,,,,,,,,,,,,,,,,,
513.8335132,20.21806167,73.24811333,7588.829289,178.8366394,195.0899963,2.5,18.29999924,,,,,,,,,,,,,,,,,
514.8318073,20.216505,73.24766333,7582.435354,178.6343536,195.1199951,2.5,18.70000076,,,,,,,,,,,,,,,,,
515.8333111,20.214945,73.24722167,7578.041449,178.2019806,195.0399933,2.5,16.89999962,,,,,,,,,,,,,,,,,
516.8316311,20.213395,73.246775,7569.547492,178.3352966,195.0800018,2.5,15.39999962,,,,,,,,,,,,,,,,,
517.8315957,20.21184167,73.24632667,7562.553547,178.0799866,195.3099976,2.5,15.60000038,,,,,,,,,,,,,,,,,
518.8317972,20.21028833,73.24588,7554.759606,178.2225647,195.1799927,2.599999905,16.20000076,,,,,,,,,,,,,,,,,
519.833281,20.20873167,73.24543167,7553.265678,177.5323334,195.1699982,2.599999905,16.89999962,,,,,,,,,,,,,,,,,
520.8314916,20.20718833,73.244985,7545.071694,177.0212097,195.3899994,2.700000048,18.39999962,,,,,,,,,,,,,,,,,
521.8319064,20.20564667,73.24453667,7536.977701,176.835907,195.3399963,2.799999952,20.0,,,,,,,,,,,,,,,,,
522.8316326,20.20411167,73.244085,7523.483673,177.8828583,195.3899994,2.799999952,18.70000076,,,,,,,,,,,,,,,,,
523.8314843,20.20257,73.24362833,7515.789666,177.1416473,195.5500031,2.900000095,19.89999962,,,,,,,,,,,,,,,,,
524.8315613,20.20102667,73.24317,7508.495664,177.7598267,195.7100067,2.900000095,23.0,,,,,,,,,,,,,,,,,
525.8335311,20.199485,73.24271333,7500.801658,176.8395081,195.7599945,3.0,24.20000076,,,,,,,,,,,,,,,,,
526.832811,20.19795,73.242255,7494.407621,176.8076019,195.7400055,3.0,24.89999962,,,,,,,,,,,,,,,,,
527.8329711,20.19641167,73.24180333,7486.713612,177.1673889,195.6300049,3.0,24.60000038,,,,,,,,,,,,,,,,,
528.8326631,20.19487667,73.24134667,7480.919579,176.0689697,195.9299927,3.099999905,24.89999962,,,,,,,,,,,,,,,,,
529.833243,20.19334833,73.240885,7477.325509,176.4122925,195.7899933,3.099999905,25.39999962,,,,,,,,,,,,,,,,,
530.83184,20.19182167,73.24042333,7475.131432,176.2182465,195.6300049,3.099999905,25.39999962,,,,,,,,,,,,,,,,,
531.833281,20.19029833,73.239965,7469.637347,175.6304321,196.0,3.099999905,25.29999924,,,,,,,,,,,,,,,,,
532.8321459,20.18878,73.2395,7465.443229,175.4636536,196.1100006,3.099999905,25.29999924,,,,,,,,,,,,,,,,,
533.8335373,20.187265,73.23903833,7461.549102,174.4156799,195.8399963,3.099999905,26.29999924,,,,,,,,,,,,,,,,,
534.8319107,20.18575167,73.23858333,7457.754982,174.5278931,195.7299957,3.099999905,25.5,,,,,,,,,,,,,,,,,
535.8320141,20.18424,73.23812833,7450.860854,173.8603058,196.0500031,3.099999905,25.5,,,,,,,,,,,,,,,,,
536.8315876,20.182735,73.23766167,7449.266677,174.1027374,195.8600006,3.200000048,25.39999962,,,,,,,,,,,,,,,,,
537.8343024,20.18122667,73.23720167,7445.272527,173.9308167,195.9700012,3.200000048,24.29999924,,,,,,,,,,,,,,,,,
538.8318467,20.17970667,73.23676167,7429.278466,172.943573,196.1699982,2.900000095,16.79999924,,,,,,,,,,,,,,,,,
539.8319267,20.17819833,73.23630833,7419.18433,173.7856598,196.1199951,2.799999952,15.60000038,,,,,,,,,,,,,,,,,
540.833136,20.17669833,73.23584333,7411.590136,172.9945374,196.1799927,2.700000048,15.39999962,,,,,,,,,,,,,,,,,
541.8317486,20.1752,73.23538,7404.695939,172.700119,196.1600037,2.700000048,14.39999962,,,,,,,,,,,,,,,,,
542.8322939,20.17370667,73.23492,7397.801727,172.1797333,196.2299957,2.700000048,15.19999981,,,,,,,,,,,,,,,,,
543.8327779,20.17221833,73.23445833,7389.70749,172.3130493,196.4100037,2.799999952,16.29999924,,,,,,,,,,,,,,,,,
544.8336901,20.17072667,73.23399667,7381.813269,172.5729828,196.1499939,2.900000095,16.60000038,,,,,,,,,,,,,,,,,
545.8333179,20.169235,73.23353667,7373.319051,172.4772339,196.3099976,2.900000095,17.29999924,,,,,,,,,,,,,,,,,
546.833689,20.167745,73.23307667,7365.524827,171.9681854,196.1699982,2.900000095,17.29999924,,,,,,,,,,,,,,,,,
547.832936,20.16625833,73.23262333,7357.830601,172.1061249,195.9400024,2.900000095,17.20000076,,,,,,,,,,,,,,,,,
548.8329019,20.16477333,73.23216667,7351.236362,171.4992676,196.1999969,3.0,17.70000076,,,,,,,,,,,,,,,,,
549.8332908,20.16329667,73.23170333,7342.042075,171.4812469,196.7799988,3.0,18.89999962,,,,,,,,,,,,,,,,,
550.8331705,20.16181667,73.23123667,7333.947798,171.3062439,196.2400055,3.099999905,19.10000038,,,,,,,,,,,,,,,,,
551.8347739,20.160335,73.230775,7326.153538,171.730896,196.2599945,3.200000048,19.29999924,,,,,,,,,,,,,,,,,
552.8322366,20.15884667,73.23031167,7318.859305,171.9738464,196.4199982,3.299999952,19.60000038,,,,,,,,,,,,,,,,,
553.8317877,20.157365,73.22984667,7310.76504,171.1986694,196.6000061,3.200000048,20.0,,,,,,,,,,,,,,,,,
554.8331182,20.15589167,73.22933167,7314.77065,171.424118,196.4400024,3.0,16.89999962,,,,,,,,,,,,,,,,,
555.8328113,20.15441333,73.22885167,7311.176345,171.2557983,196.6799927,2.799999952,15.5,,,,,,,,,,,,,,,,,
556.8322351,20.15293833,73.22837833,7303.582038,171.2702179,196.6999969,2.799999952,15.5,,,,,,,,,,,,,,,,,
557.8331227,20.15146667,73.22789667,7296.587702,171.426178,196.6799927,2.700000048,14.39999962,,,,,,,,,,,,,,,,,
558.8332338,20.149985,73.22743333,7287.693444,170.9057922,196.6900024,2.700000048,14.80000019,,,,,,,,,,,,,,,,,
559.8326659,20.14851167,73.22696,7279.399132,170.765274,196.5800018,2.700000048,14.80000019,,,,,,,,,,,,,,,,,
560.8347816,20.14703833,73.22649167,7271.00483,170.6597595,196.5299988,2.700000048,15.5,,,,,,,,,,,,,,,,,
561.8349373,20.14556167,73.22602667,7262.310549,170.6829224,196.5800018,2.799999952,15.39999962,,,,,,,,,,,,,,,,,
562.8329012,20.14408667,73.22556167,7253.616262,170.3740845,196.5399933,2.799999952,15.39999962,,,,,,,,,,,,,,,,,
563.8346293,20.14261667,73.22509,7245.521941,170.072464,196.7599945,2.799999952,15.10000038,,,,,,,,,,,,,,,,,
564.8324843,20.141145,73.224625,7236.527641,170.6098328,196.5500031,2.700000048,15.5,,,,,,,,,,,,,,,,,
565.832965,20.13967167,73.22416,7227.833348,170.0539246,196.7100067,2.700000048,15.60000038,,,,,,,,,,,,,,,,,
566.8335668,20.13819833,73.22369667,7218.03906,169.7862701,196.7700043,2.5,13.19999981,,,,,,,,,,,,,,,,,
567.8339941,20.13672833,73.223235,7209.74476,169.9381104,196.4499969,2.599999905,14.69999981,,,,,,,,,,,,,,,,,
568.8340713,20.13525667,73.22277333,7201.850468,169.7147217,196.4299927,2.599999905,14.69999981,,,,,,,,,,,,,,,,,
569.8344708,20.133785,73.22231,7193.356174,169.8027496,196.8099976,2.400000095,14.10000038,,,,,,,,,,,,,,,,,
570.8331593,20.13231,73.22183667,7187.161878,170.7668152,196.6000061,2.400000095,14.10000038,,,,,,,,,,,,,,,,,
571.83298,20.13083667,73.22137667,7180.767599,170.1506958,196.4600067,2.400000095,15.0,,,,,,,,,,,,,,,,,
572.8327467,20.12936833,73.22091833,7170.573301,169.6632538,196.6399994,2.299999952,15.10000038,,,,,,,,,,,,,,,,,
573.8337736,20.12790333,73.22044667,7162.378966,169.6833344,196.7200012,2.299999952,15.5,,,,,,,,,,,,,,,,,
574.831611,20.12643333,73.21998,7155.684663,169.2885284,196.5700073,2.299999952,14.69999981,,,,,,,,,,,,,,,,,
575.8339111,20.12496333,73.219515,7149.490363,169.5757446,196.75,2.400000095,14.69999981,,,,,,,,,,,,,,,,,
576.833039,20.12349,73.21905333,7143.096085,169.8820038,196.5700073,2.400000095,15.80000019,,,,,,,,,,,,,,,,,
577.8318179,20.122025,73.218585,7135.901758,169.0718384,196.8000031,2.400000095,16.60000038,,,,,,,,,,,,,,,,,
578.8325898,20.12056167,73.21812333,7126.407437,169.5232544,196.7400055,2.400000095,17.10000038,,,,,,,,,,,,,,,,,
579.8343133,20.11909333,73.21766,7117.413136,169.6822968,196.7400055,2.5,16.39999962,,,,,,,,,,,,,,,,,
580.8332187,20.117625,73.21719833,7108.818838,169.7136993,196.6699982,2.400000095,16.60000038,,,,,,,,,,,,,,,,,
581.8329203,20.11616,73.216735,7102.824524,169.0234528,196.8300018,2.400000095,16.10000038,,,,,,,,,,,,,,,,,
582.8328887,20.11470167,73.216265,7097.630169,168.9338989,197.0800018,2.400000095,16.39999962,,,,,,,,,,,,,,,,,
583.8336166,20.11324667,73.21578667,7093.535785,168.7285156,197.0800018,2.5,16.60000038,,,,,,,,,,,,,,,,,
584.831961,20.11178833,73.21530667,7090.041414,169.5407562,197.3399963,2.5,17.20000076,,,,,,,,,,,,,,,,,
585.8346367,20.11032833,73.21483,7085.447057,169.1104431,197.0200043,2.5,18.20000076,,,,,,,,,,,,,,,,,
586.834019,20.10887,73.214355,7081.052696,169.2468414,197.2200012,2.599999905,18.10000038,,,,,,,,,,,,,,,,,
587.8339366,20.10741167,73.21387333,7076.958324,169.4738312,197.3699951,2.599999905,18.5,,,,,,,,,,,,,,,,,
588.833881,20.105955,73.21339167,7073.663945,169.0538177,197.3099976,2.599999905,19.0,,,,,,,,,,,,,,,,,
589.8337541,20.10449833,73.212915,7069.669576,169.2694855,197.1799927,2.700000048,19.0,,,,,,,,,,,,,,,,,
590.8335336,20.10304,73.212435,7066.57521,169.2303772,197.3000031,2.700000048,19.5,,,,,,,,,,,,,,,,,
591.8342024,20.10158667,73.21195,7063.280813,169.0105896,197.3699951,2.700000048,20.20000076,,,,,,,,,,,,,,,,,
592.8323773,20.10013,73.21147,7058.48644,169.0044098,197.2799988,2.700000048,20.5,,,,,,,,,,,,,,,,,
593.8333021,20.098675,73.21098667,7055.192055,169.1191864,197.3800049,2.700000048,20.10000038,,,,,,,,,,,,,,,,,
594.8342095,20.09722,73.21050333,7050.497671,169.0980835,197.3099976,2.700000048,20.70000076,,,,,,,,,,,,,,,,,
595.83262,20.095765,73.21002667,7044.8033,168.7202759,197.1000061,2.700000048,21.0,,,,,,,,,,,,,,,,,
596.8330887,20.09431,73.209545,7041.50892,169.0388947,197.2700043,2.599999905,18.60000038,,,,,,,,,,,,,,,,,
597.8347793,20.09285667,73.20906667,7034.114539,169.1264038,197.1799927,2.400000095,16.89999962,,,,,,,,,,,,,,,,,
598.8321065,20.09139667,73.20859333,7028.420198,168.8541107,197.0099945,2.400000095,17.10000038,,,,,,,,,,,,,,,,,
599.832977,20.08993833,73.20812167,7022.725853,169.142868,197.1000061,2.5,17.60000038,,,,,,,,,,,,,,,,,
600.8330923,20.08848167,73.20764667,7017.031495,169.1228027,197.2100067,2.5,18.20000076,,,,,,,,,,,,,,,,,
601.832,20.087025,73.20716833,7011.937133,169.2648621,197.1900024,2.5,19.10000038,,,,,,,,,,,,,,,,,
602.8333015,20.085565,73.206695,7006.342794,169.0399323,197.1499939,2.5,20.0,,,,,,,,,,,,,,,,,
603.8330781,20.08410667,73.20622167,7000.94845,169.0646362,197.0500031,2.599999905,20.79999924,,,,,,,,,,,,,,,,,
604.8328194,20.082645,73.20575333,6995.854129,169.1629486,196.8800049,2.599999905,20.70000076,,,,,,,,,,,,,,,,,
605.8340615,20.08118667,73.205285,6988.359794,168.7527161,197.1900024,2.599999905,21.20000076,,,,,,,,,,,,,,,,,
606.8327597,20.07971667,73.20482333,6990.865524,169.1284637,196.9600067,2.400000095,16.5,,,,,,,,,,,,,,,,,
607.8325769,20.07825667,73.20435167,6985.971192,169.4064026,196.9900055,2.299999952,15.10000038,,,,,,,,,,,,,,,,,
608.8341336,20.07680167,73.20387833,6979.876836,168.5710144,197.2100067,2.299999952,15.5,,,,,,,,,,,,,,,,,
609.834312,20.07535333,73.20340333,6973.682449,168.1237183,197.3099976,2.400000095,15.30000019,,,,,,,,,,,,,,,,,
610.8330548,20.07389667,73.20293,6971.188102,168.9941101,197.0099945,2.299999952,15.0,,,,,,,,,,,,,,,,,
611.8339384,20.07243833,73.20246333,6967.393774,168.4428406,197.0599976,2.200000048,15.5,,,,,,,,,,,,,,,,,
612.8329812,20.07098667,73.20199333,6961.499412,168.2364502,197.1699982,2.200000048,15.89999962,,,,,,,,,,,,,,,,,
613.8328265,20.069535,73.20151833,6954.505043,168.3517456,197.1799927,2.200000048,17.10000038,,,,,,,,,,,,,,,,,
614.8330984,20.068085,73.20104167,6947.310663,168.3440247,196.9600067,2.200000048,17.39999962,,,,,,,,,,,,,,,,,
615.8339462,20.066635,73.20057167,6940.816296,168.2379913,197.0700073,2.200000048,15.19999981,,,,,,,,,,,,,,,,,
616.8322944,20.06518,73.200105,6933.821958,168.4799042,196.8600006,2.200000048,15.89999962,,,,,,,,,,,,,,,,,
617.8327655,20.06372833,73.19963833,6927.127605,167.9250336,196.9299927,2.299999952,16.5,,,,,,,,,,,,,,,,,
618.8329237,20.06227667,73.19917333,6921.233257,168.0444489,196.8600006,2.299999952,16.79999924,,,,,,,,,,,,,,,,,
619.8332132,20.06082833,73.198705,6915.638888,167.9523163,196.9900055,2.400000095,17.10000038,,,,,,,,,,,,,,,,,
620.8321874,20.05938,73.19824167,6909.144529,167.9332733,196.8200073,2.400000095,17.5,,,,,,,,,,,,,,,,,
621.833936,20.05793333,73.19778,6899.650166,167.5498047,196.8800049,2.400000095,17.0,,,,,,,,,,,,,,,,,
622.8326917,20.05648833,73.19731667,6894.155793,167.3850861,196.9400024,2.400000095,17.29999924,,,,,,,,,,,,,,,,,
623.8331578,20.05504667,73.19685167,6888.361404,167.03302,197.1699982,2.400000095,17.60000038,,,,,,,,,,,,,,,,,
624.8334797,20.053605,73.196385,6882.467012,167.2950134,196.9299927,2.400000095,18.29999924,,,,,,,,,,,,,,,,,
625.8326607,20.05216333,73.19592167,6876.672627,167.0283966,197.0099945,2.400000095,19.29999924,,,,,,,,,,,,,,,,,
626.8324793,20.05072333,73.19545667,6870.678232,167.0500031,196.9400024,2.400000095,19.70000076,,,,,,,,,,,,,,,,,
627.8336569,20.04928,73.19499333,6866.383856,167.1447144,196.8200073,2.400000095,20.39999962,,,,,,,,,,,,,,,,,
628.8323505,20.04784,73.19453667,6858.589477,166.393219,196.7799988,2.400000095,21.10000038,,,,,,,,,,,,,,,,,
629.8344483,20.046405,73.19407667,6851.595071,166.4060974,197.0099945,2.400000095,21.39999962,,,,,,,,,,,,,,,,,
630.8332113,20.04496833,73.19362,6840.100679,166.2974854,196.7200012,2.400000095,18.20000076,,,,,,,,,,,,,,,,,
631.8332794,20.04353333,73.193165,6831.706283,166.2799835,196.7400055,2.299999952,16.79999924,,,,,,,,,,,,,,,,,
632.8338751,20.04209833,73.19270833,6825.311885,165.6916504,196.6000061,2.299999952,17.10000038,,,,,,,,,,,,,,,,,
633.8349437,20.04066833,73.19225333,6818.117468,165.4337769,196.6100006,2.299999952,16.39999962,,,,,,,,,,,,,,,,,
634.8327781,20.03923667,73.19181,6811.023079,165.6365814,196.1499939,2.400000095,15.69999981,,,,,,,,,,,,,,,,,
635.8343437,20.03779667,73.19138333,6805.128757,165.9984283,195.1799927,2.400000095,16.0,,,,,,,,,,,,,,,,,
636.8341141,20.03634833,73.19097833,6799.434511,165.5789337,194.3300018,2.400000095,16.39999962,,,,,,,,,,,,,,,,,
637.8335043,20.0349,73.19059333,6794.640299,165.22995,193.7700043,2.400000095,15.5,,,,,,,,,,,,,,,,,
638.8334573,20.03344833,73.19023333,6788.746146,165.3231201,192.4900055,2.400000095,15.80000019,,,,,,,,,,,,,,,,,
639.8344893,20.03199167,73.18991167,6781.152081,164.8032532,191.3999939,2.400000095,16.39999962,,,,,,,,,,,,,,,,,
640.8343624,20.03053167,73.18961333,6772.658072,165.368927,190.3899994,2.400000095,16.0,,,,,,,,,,,,,,,,,
641.8340163,20.029065,73.18935667,6764.564165,165.0575256,188.7299957,2.400000095,16.5,,,,,,,,,,,,,,,,,
642.8331557,20.02759167,73.189135,6756.370349,165.0317841,187.3999939,2.400000095,17.60000038,,,,,,,,,,,,,,,,,
643.8332619,20.02611333,73.18895,6745.376618,165.0487671,186.2700043,2.400000095,18.20000076,,,,,,,,,,,,,,,,,
644.8330824,20.02463333,73.18880333,6736.08296,164.5397034,184.5099945,2.5,18.0,,,,,,,,,,,,,,,,,
645.83378,20.023155,73.18870833,6727.289384,164.0085144,182.6000061,2.5,17.5,,,,,,,,,,,,,,,,,
646.8338,20.02167167,73.18865833,6718.895908,164.3858032,181.3300018,2.5,17.70000076,,,,,,,,,,,,,,,,,
647.8346176,20.02018667,73.18865,6708.702511,164.3672791,179.6399994,2.5,17.70000076,,,,,,,,,,,,,,,,,
648.8327123,20.01870667,73.18868,6700.609157,163.7130585,178.3200073,2.5,18.10000038,,,,,,,,,,,,,,,,,
649.8329526,20.01722833,73.18874167,6690.41585,164.2519836,177.3300018,2.700000048,18.60000038,,,,,,,,,,,,,,,,,
650.8330243,20.01575167,73.18884333,6680.222603,164.3374176,176.1499939,3.200000048,20.0,,,,,,,,,,,,,,,,,
651.8337043,20.014285,73.18904,6671.329475,163.9153442,173.0399933,3.200000048,20.20000076,,,,,,,,,,,,,,,,,
652.8338791,20.01281667,73.18925167,6661.73638,163.9019623,171.9799957,3.099999905,20.39999962,,,,,,,,,,,,,,,,,
653.8340705,20.01136,73.18950333,6653.7433,163.3229065,169.6600037,3.0,21.10000038,,,,,,,,,,,,,,,,,
654.8326957,20.00991,73.18980667,6645.650279,163.6024017,168.1199951,3.0,21.20000076,,,,,,,,,,,,,,,,,
655.8325536,20.008475,73.19015333,6637.457265,162.7767792,166.1900024,2.900000095,21.29999924,,,,,,,,,,,,,,,,,
656.8335234,20.00706,73.19055667,6631.364258,162.1956635,163.9700012,2.799999952,21.39999962,,,,,,,,,,,,,,,,,
657.8332825,20.00565667,73.19099667,6622.57126,162.3119965,163.3699951,2.799999952,21.0,,,,,,,,,,,,,,,,,
658.832368,20.004265,73.19147167,6612.57827,162.3433838,161.8600006,2.700000048,21.10000038,,,,,,,,,,,,,,,,,
659.834291,20.00288667,73.191985,6602.785285,161.77771,159.9299927,2.700000048,20.39999962,,,,,,,,,,,,,,,,,
660.8327653,20.00153167,73.19255833,6594.392298,161.7617493,157.3999939,2.700000048,20.5,,,,,,,,,,,,,,,,,
661.8326308,20.00019333,73.19317167,6587.099304,161.2248993,156.2200012,2.700000048,20.89999962,,,,,,,,,,,,,,,,,
662.8331677,19.99887333,73.19381667,6577.407075,160.6700287,154.9600067,2.799999952,21.39999962,,,,,,,,,,,,,,,,,
663.8343157,19.99757333,73.19450333,6567.11495,160.4795837,153.0599976,2.900000095,21.89999962,,,,,,,,,,,,,,,,,
664.8339249,19.99630167,73.195245,6562.82277,160.6453247,151.0899963,2.900000095,21.89999962,,,,,,,,,,,,,,,,,
665.8333357,19.99506833,73.19603,6568.430466,160.2587585,149.5899963,2.700000048,17.10000038,,,,,,,,,,,,,,,,,
666.8330686,19.99384,73.19684,6564.938177,160.1033173,147.4199982,2.700000048,16.89999962,,,,,,,,,,,,,,,,,
667.8328985,19.99264167,73.19768667,6561.645794,159.0867462,145.6999969,2.700000048,17.89999962,,,,,,,,,,,,,,,,,
668.8323477,19.99146833,73.19856667,6559.153338,159.1248322,144.4400024,2.700000048,18.29999924,,,,,,,,,,,,,,,,,
669.8328468,19.99031667,73.19946833,6554.660805,158.3805389,143.2799988,2.700000048,19.20000076,,,,,,,,,,,,,,,,,
670.8324979,19.989185,73.20039333,6551.168208,158.500473,141.8899994,2.799999952,19.89999962,,,,,,,,,,,,,,,,,
671.833096,19.98808333,73.201375,6546.075551,158.0341339,140.4199982,2.700000048,16.70000076,,,,,,,,,,,,,,,,,
672.833552,19.98699167,73.20234667,6545.582824,158.2245789,139.8200073,2.799999952,17.79999924,,,,,,,,,,,,,,,,,
673.831936,19.98593,73.20336333,6546.690017,157.7803802,138.0599976,3.0,19.10000038,,,,,,,,,,,,,,,,,
674.8336252,19.98490667,73.20442,6545.897079,157.7731628,135.6199951,3.099999905,20.70000076,,,,,,,,,,,,,,,,,
675.8341975,19.98391833,73.20551167,6544.304018,157.5250702,134.2299957,3.099999905,22.0,,,,,,,,,,,,,,,,,
676.8333274,19.982955,73.20663333,6541.110879,158.4387054,132.1600037,3.0,22.89999962,,,,,,,,,,,,,,,,,
677.8333428,19.98201,73.207775,6539.617677,158.0058289,131.2899933,3.0,24.5,,,,,,,,,,,,,,,,,
678.8345538,19.98109167,73.20893667,6535.12437,158.0217743,130.1300049,3.0,24.70000076,,,,,,,,,,,,,,,,,
679.83274,19.9802,73.21012333,6533.830967,158.0572968,128.4700012,3.0,24.60000038,,,,,,,,,,,,,,,,,
680.832988,19.97934,73.21134,6531.83745,158.5967255,127.0299988,2.900000095,23.70000076,,,,,,,,,,,,,,,,,
681.834232,19.97849833,73.21256667,6528.543855,158.4479675,125.4700012,2.900000095,23.10000038,,,,,,,,,,,,,,,,,
682.8342609,19.97768667,73.21381667,6524.650143,158.6749573,123.8899994,2.900000095,22.79999924,,,,,,,,,,,,,,,,,
683.8343603,19.97690667,73.21508167,6525.556292,157.957962,122.5899963,2.900000095,22.89999962,,,,,,,,,,,,,,,,,
684.8331055,19.97616333,73.21636833,6522.762288,158.464447,120.9800034,2.900000095,22.60000038,,,,,,,,,,,,,,,,,
685.8333593,19.97545167,73.21769167,6508.968182,159.0594635,119.8000031,2.799999952,18.10000038,,,,,,,,,,,,,,,,,
686.8330627,19.97475333,73.21901667,6506.174009,159.6009521,118.4599991,2.799999952,18.20000076,,,,,,,,,,,,,,,,,
687.8336391,19.974095,73.22036333,6504.079665,159.3404999,116.4300003,3.0,18.70000076,,,,,,,,,,,,,,,,,
688.833024,19.97345667,73.221725,6500.285243,158.2971649,116.0,3.5,15.89999962,,,,,,,,,,,,,,,,,
689.8330133,19.97284,73.22309833,6497.090728,159.1026917,114.5500031,3.5,14.69999981,,,,,,,,,,,,,,,,,
690.8321437,19.97224333,73.22448,6494.696123,158.8803406,113.6699982,3.799999952,15.39999962,,,,,,,,,,,,,,,,,
691.8318738,19.971745,73.22589833,6494.101074,158.879303,111.8399963,3.299999952,15.39999962,,,,,,,,,,,,,,,,,
692.8324695,19.97123,73.22731667,6491.006109,158.8612976,110.6699982,3.200000048,15.89999962,,,,,,,,,,,,,,,,,
693.8336616,19.97075333,73.22874833,6488.91097,158.6445923,108.9100037,3.200000048,16.20000076,,,,,,,,,,,,,,,,,
694.8322483,19.97031333,73.23019167,6486.61566,159.4233704,107.8899994,3.200000048,15.89999962,,,,,,,,,,,,,,,,,
695.832403,19.96989167,73.23164667,6483.620275,159.3389587,106.7399979,3.200000048,15.39999962,,,,,,,,,,,,,,,,,
696.8331646,19.96952,73.23311333,6480.224653,158.4325256,104.2799988,3.200000048,15.19999981,,,,,,,,,,,,,,,,,
697.8332256,19.96919667,73.234585,6477.42879,158.0047913,102.6299973,3.299999952,15.5,,,,,,,,,,,,,,,,,
698.8330052,19.96890167,73.23607,6473.932804,159.0640869,101.4700012,3.299999952,15.60000038,,,,,,,,,,,,,,,,,
699.8344929,19.96862667,73.23755833,6469.93672,158.6728973,100.6600037,3.400000095,16.10000038,,,,,,,,,,,,,,,,,
700.8327892,19.96837167,73.23904,6468.840522,158.6708527,98.69000244,3.200000048,15.69999981,,,,,,,,,,,,,,,,,
701.8330326,19.968165,73.24053667,6465.3441,158.4351044,96.98999786,3.200000048,16.20000076,,,,,,,,,,,,,,,,,
702.8318434,19.96800833,73.24204667,6461.347445,159.1572571,95.77999878,3.200000048,17.10000038,,,,,,,,,,,,,,,,,
703.8324757,19.96788333,73.24356,6456.550632,158.7449646,94.27999878,3.200000048,18.70000076,,,,,,,,,,,,,,,,,
704.8322317,19.96778833,73.24506333,6453.453649,158.4170837,93.34999847,3.200000048,19.10000038,,,,,,,,,,,,,,,,,
705.8330237,19.96774833,73.24657667,6448.0564,157.8936157,91.01999664,3.200000048,19.39999962,,,,,,,,,,,,,,,,,
706.8326677,19.96775833,73.248085,6443.358887,157.871994,89.25,3.200000048,19.5,,,,,,,,,,,,,,,,,
707.8339736,19.96783167,73.24962333,6437.1611,158.4556885,88.22000122,2.900000095,19.10000038,,,,,,,,,,,,,,,,,
708.8310181,19.96794667,73.251165,6427.463106,158.4387054,86.63999939,2.799999952,18.20000076,,,,,,,,,,,,,,,,,
709.8326028,19.96806333,73.25267333,6421.265047,158.7176819,84.97000122,2.799999952,18.10000038,,,,,,,,,,,,,,,,,
710.8321117,19.96822167,73.25418167,6416.566775,158.7145996,83.30999756,2.700000048,16.39999962,,,,,,,,,,,,,,,,,
711.8325634,19.96841167,73.25568833,6407.868338,158.5720215,81.87000275,2.700000048,16.60000038,,,,,,,,,,,,,,,,,
712.8327729,19.96866,73.25718333,6399.269584,158.7408447,79.75,2.599999905,15.19999981,,,,,,,,,,,,,,,,,
713.8330705,19.96893667,73.25867333,6392.370677,159.1340942,78.58000183,2.599999905,15.60000038,,,,,,,,,,,,,,,,,
714.8308923,19.96924167,73.26015667,6386.471614,158.6873169,76.98999786,2.599999905,16.20000076,,,,,,,,,,,,,,,,,
715.8323147,19.96958333,73.26162833,6380.572345,158.5905457,75.63999939,2.700000048,16.20000076,,,,,,,,,,,,,,,,,
716.8326745,19.96996333,73.26308667,6374.172858,158.049057,73.73999786,2.700000048,15.89999962,,,,,,,,,,,,,,,,,
717.8323504,19.97038167,73.26453333,6367.673156,158.7820282,72.45999908,2.700000048,15.80000019,,,,,,,,,,,,,,,,,
718.83306,19.97084333,73.26597833,6360.373231,158.4057617,70.52999878,2.700000048,16.20000076,,,,,,,,,,,,,,,,,
719.8333299,19.97134333,73.26739,6355.873054,158.3872375,68.55000305,2.799999952,17.0,,,,,,,,,,,,,,,,,
720.8316858,19.97188167,73.26878667,6350.872658,157.2553558,67.08000183,2.700000048,15.30000019,,,,,,,,,,,,,,,,,
721.8327788,19.97245333,73.27017,6344.972069,158.4747314,66.01999664,2.799999952,15.89999962,,,,,,,,,,,,,,,,,
722.8338517,19.97305833,73.27154667,6337.671301,158.2286987,65.01000214,2.799999952,16.39999962,,,,,,,,,,,,,,,,,
723.832451,19.97370167,73.27288667,6335.270275,158.2400208,63.25,2.799999952,16.0,,,,,,,,,,,,,,,,,
724.834633,19.97436833,73.27422,6331.069121,158.7460022,61.91999817,2.799999952,16.20000076,,,,,,,,,,,,,,,,,
725.8347735,19.975065,73.27553833,6326.667789,157.7170715,60.20000076,2.799999952,16.29999924,,,,,,,,,,,,,,,,,
726.8325944,19.97578833,73.27684,6320.166294,158.1303864,58.52000046,2.799999952,15.69999981,,,,,,,,,,,,,,,,,
727.8332012,19.97656,73.27811333,6316.664506,158.3156891,56.79000092,2.799999952,16.29999924,,,,,,,,,,,,,,,,,
728.834363,19.97736,73.27938167,6312.362567,159.1325531,55.77000046,2.700000048,15.5,,,,,,,,,,,,,,,,,
729.8327317,19.97819167,73.28062333,6308.060422,158.9714508,54.09000015,2.700000048,15.80000019,,,,,,,,,,,,,,,,,
730.834948,19.979055,73.28184,6303.358075,158.5843658,52.45999908,2.700000048,16.39999962,,,,,,,,,,,,,,,,,
731.8345904,19.97994833,73.28302333,6298.055519,157.7237549,50.97999954,2.799999952,17.0,,,,,,,,,,,,,,,,,
732.8319096,19.98086833,73.28417833,6291.852782,157.8972168,49.38999939,2.799999952,16.89999962,,,,,,,,,,,,,,,,,
733.8332818,19.981825,73.28532,6287.049836,159.3430786,48.24000168,2.700000048,16.20000076,,,,,,,,,,,,,,,,,
734.8343139,19.98281167,73.28643333,6281.946691,158.9410706,46.36999893,2.599999905,16.0,,,,,,,,,,,,,,,,,
735.832921,19.98381167,73.28752333,6277.543439,158.8067322,45.43000031,2.599999905,16.5,,,,,,,,,,,,,,,,,
736.8341077,19.98483333,73.28859167,6274.940042,159.2607117,44.36999893,2.700000048,16.60000038,,,,,,,,,,,,,,,,,
737.8341114,19.98587667,73.28963833,6273.2365,158.8901215,42.90000153,2.700000048,17.29999924,,,,,,,,,,,,,,,,,
738.8325627,19.98694667,73.29065167,6269.932766,158.6018677,41.15999985,2.700000048,17.79999924,,,,,,,,,,,,,,,,,
739.8328698,19.98804833,73.29162833,6266.828811,159.0759277,39.34000015,2.799999952,18.5,,,,,,,,,,,,,,,,,
740.8344087,19.98918333,73.29257,6261.624628,159.4038086,37.72999954,2.900000095,18.5,,,,,,,,,,,,,,,,,
741.834407,19.990335,73.29347667,6256.020301,159.0234375,35.77000046,2.900000095,18.79999924,,,,,,,,,,,,,,,,,
742.8343821,19.99151333,73.294345,6251.515776,159.0023193,34.59000015,2.900000095,19.60000038,,,,,,,,,,,,,,,,,
743.8346179,19.99271333,73.29518667,6238.811096,160.000885,33.02999878,2.900000095,17.79999924,,,,,,,,,,,,,,,,,
744.8342021,19.99393667,73.296,6234.00625,159.6632233,31.78000069,3.0,17.39999962,,,,,,,,,,,,,,,,,
745.832607,19.99517667,73.29677833,6229.301262,159.6637421,30.37999916,3.099999905,18.20000076,,,,,,,,,,,,,,,,,
746.8340299,19.99643,73.29752333,6225.09615,159.1376953,28.90999985,3.299999952,18.20000076,,,,,,,,,,,,,,,,,
747.8344947,19.997715,73.29823167,6223.490816,160.3123016,27.18000031,3.200000048,16.5,,,,,,,,,,,,,,,,,
748.8345957,19.99900667,73.29892167,6220.285417,160.2891388,25.93000031,3.099999905,16.5,,,,,,,,,,,,,,,,,
749.8351807,20.00032,73.29956667,6216.280055,160.2623596,24.48999977,3.099999905,15.5,,,,,,,,,,,,,,,,,
750.8327966,20.00167833,73.300145,6221.275072,160.0852966,22.81999969,2.700000048,12.80000019,,,,,,,,,,,,,,,,,
751.8324126,20.00302,73.300715,6216.670148,160.4384003,21.45999908,2.799999952,12.89999962,,,,,,,,,,,,,,,,,
752.8342784,20.004385,73.301245,6215.665055,160.3524475,19.65999985,2.599999905,12.30000019,,,,,,,,,,,,,,,,,
753.8343846,20.00576667,73.30174167,6214.559832,160.9299622,18.14999962,2.400000095,11.80000019,,,,,,,,,,,,,,,,,
754.8339945,20.007155,73.30219,6210.654498,160.0703735,16.57999992,2.400000095,11.80000019,,,,,,,,,,,,,,,,,
755.834369,20.00854833,73.30260167,6205.649081,160.6005402,15.07999992,2.299999952,11.5,,,,,,,,,,,,,,,,,
756.8344742,20.00995,73.30297333,6199.943559,160.2191315,13.40999985,2.299999952,11.60000038,,,,,,,,,,,,,,,,,
757.8326302,20.01136167,73.30329833,6191.637913,160.2247925,12.22000027,2.200000048,11.60000038,,,,,,,,,,,,,,,,,
758.8335237,20.01277667,73.30359667,6184.632208,159.9072113,10.81000042,2.200000048,10.80000019,,,,,,,,,,,,,,,,,
759.8345102,20.01419833,73.30385667,6178.026409,160.2052307,9.029999733,2.200000048,10.69999981,,,,,,,,,,,,,,,,,
760.833355,20.01562833,73.30407833,6172.220508,160.3509064,7.739999771,2.200000048,10.60000038,,,,,,,,,,,,,,,,,
761.8352348,20.01706333,73.30426333,6167.914522,159.9025726,6.099999905,2.099999905,10.39999962,,,,,,,,,,,,,,,,,
762.8345267,20.01849667,73.30440167,6160.708464,159.8845673,4.639999866,2.099999905,10.5,,,,,,,,,,,,,,,,,
763.8332108,20.019935,73.3045,6154.202315,160.0621338,3.049999952,2.099999905,10.30000019,,,,,,,,,,,,,,,,,
764.8346127,20.02137667,73.30455,6145.896069,159.7744141,1.429999948,2.099999905,10.39999962,,,,,,,,,,,,,,,,,
765.8347058,20.022815,73.30456333,6138.189775,159.308075,0.02999999933,2.099999905,10.10000038,,,,,,,,,,,,,,,,,
766.8342216,20.02425,73.30454333,6131.183438,159.2149048,358.5499878,2.099999905,10.10000038,,,,,,,,,,,,,,,,,
767.8345124,20.02569167,73.30447833,6125.776995,159.7733765,356.7999878,2.099999905,10.19999981,,,,,,,,,,,,,,,,,
768.833329,20.027125,73.30436833,6120.570511,159.3703461,355.1499939,2.099999905,10.19999981,,,,,,,,,,,,,,,,,
769.8332412,20.02855667,73.30421667,6115.663962,159.2735901,353.8500061,2.099999905,9.899999619,,,,,,,,,,,,,,,,,
770.8338766,20.02998167,73.304025,6110.057374,159.1263733,352.1199951,2.099999905,10.10000038,,,,,,,,,,,,,,,,,
771.8346544,20.03140167,73.303795,6104.550741,158.7820282,350.5899963,2.099999905,10.0,,,,,,,,,,,,,,,,,
772.8342184,20.03281667,73.30352,6099.844052,159.2524872,348.9299927,2.099999905,10.0,,,,,,,,,,,,,,,,,
773.834948,20.034225,73.30321167,6095.237335,158.9498291,347.6700134,2.099999905,10.10000038,,,,,,,,,,,,,,,,,
774.8345591,20.03562667,73.30287,6091.730589,159.0553436,346.2399902,2.099999905,10.0,,,,,,,,,,,,,,,,,
775.8327027,20.03702,73.302485,6087.623805,159.0692444,344.4700012,2.099999905,10.0,,,,,,,,,,,,,,,,,
776.8336305,20.03839333,73.30206167,6082.817041,158.6152496,343.019989,2.099999905,10.0,,,,,,,,,,,,,,,,,
777.8345674,20.03975333,73.301595,6077.410261,158.1278076,341.3999939,2.099999905,10.30000019,,,,,,,,,,,,,,,,,
778.8333354,20.04109833,73.30109333,6071.603485,158.3300934,339.8200073,2.099999905,10.30000019,,,,,,,,,,,,,,,,,
779.8352483,20.04243333,73.30055167,6065.696684,158.020752,338.3699951,2.200000048,11.19999981,,,,,,,,,,,,,,,,,
780.833576,20.04375167,73.29997,6059.989886,158.0253906,336.769989,2.099999905,10.5,,,,,,,,,,,,,,,,,
781.832761,20.045065,73.29935,6057.383043,158.2914886,335.3999939,2.099999905,10.69999981,,,,,,,,,,,,,,,,,
782.8341413,20.04637,73.29869833,6057.47618,158.5318756,334.1700134,2.099999905,10.69999981,,,,,,,,,,,,,,,,,
783.8349274,20.04764833,73.29801833,6056.069385,158.511795,332.3800049,2.099999905,11.0,,,,,,,,,,,,,,,,,
784.8333317,20.0489,73.29729833,6051.862637,157.9008179,331.0499878,2.099999905,11.0,,,,,,,,,,,,,,,,,
785.8339366,20.05013,73.29654167,6045.25592,157.9028778,329.2799988,2.0,10.60000038,,,,,,,,,,,,,,,,,
786.8325231,20.05134167,73.295745,6038.549213,157.8632507,327.7200012,2.0,10.30000019,,,,,,,,,,,,,,,,,
787.8327124,20.05253333,73.29492333,6033.54255,157.8786926,326.3800049,2.099999905,10.19999981,,,,,,,,,,,,,,,,,
788.8336247,20.05370833,73.29406667,6027.535898,157.8617096,324.9200134,2.099999905,9.899999619,,,,,,,,,,,,,,,,,
789.8342757,20.05486167,73.29317833,6021.729285,157.7458954,323.4899902,2.0,9.899999619,,,,,,,,,,,,,,,,,
790.8334428,20.055995,73.292265,6017.022716,157.8869171,322.0599976,2.0,9.899999619,,,,,,,,,,,,,,,,,
791.8347797,20.05711,73.29132667,6013.616183,157.9255219,320.6199951,2.0,10.10000038,,,,,,,,,,,,,,,,,
792.8336298,20.05819833,73.29035833,6009.009714,157.7463989,319.3200073,2.0,9.899999619,,,,,,,,,,,,,,,,,
793.8323123,20.059265,73.28936167,6004.30329,157.508606,317.75,2.0,9.5,,,,,,,,,,,,,,,,,
794.8334059,20.06030333,73.28833833,5999.796943,157.7489777,315.8699951,2.0,9.399999619,,,,,,,,,,,,,,,,,
795.8344012,20.06131833,73.28728333,5995.390643,157.9445801,314.7999878,2.0,9.300000191,,,,,,,,,,,,,,,,,
796.8330649,20.06230667,73.28619833,5990.784407,157.6686859,313.1900024,2.0,9.399999619,,,,,,,,,,,,,,,,,
797.8350563,20.06327,73.28508167,5986.878224,158.3172302,311.6600037,2.0,9.5,,,,,,,,,,,,,,,,,
798.8335997,20.06420667,73.28393833,5982.772112,158.0253906,310.269989,2.0,9.5,,,,,,,,,,,,,,,,,
799.8325757,20.065115,73.28276833,5978.966077,158.6770172,308.6400146,2.099999905,10.0,,,,,,,,,,,,,,,,,
800.832476,20.06599667,73.281575,5975.460117,157.9667053,307.6700134,2.099999905,10.30000019,,,,,,,,,,,,,,,,,
801.8345151,20.06684333,73.28035667,5972.554267,158.4042206,305.8599854,2.099999905,10.5,,,,,,,,,,,,,,,,,
802.833329,20.067665,73.27911833,5968.448491,158.4351044,304.4500122,2.200000048,10.19999981,,,,,,,,,,,,,,,,,
803.8345714,20.068455,73.27785833,5964.142815,158.6538544,302.769989,2.200000048,10.30000019,,,,,,,,,,,,,,,,,
804.8323671,20.06921833,73.276575,5958.837216,158.0053101,301.7399902,2.200000048,10.10000038,,,,,,,,,,,,,,,,,
805.8327588,20.06994833,73.27527833,5953.831739,158.2925262,299.9899902,2.200000048,10.10000038,,,,,,,,,,,,,,,,,
806.833357,20.070645,73.273955,5949.626361,158.5153961,298.5499878,2.200000048,10.30000019,,,,,,,,,,,,,,,,,
807.8340693,20.07130667,73.27260667,5946.121094,159.0296021,296.9400024,2.099999905,10.30000019,,,,,,,,,,,,,,,,,
808.8343564,20.07193667,73.27124167,5941.715935,158.1705322,295.6600037,2.099999905,10.10000038,,,,,,,,,,,,,,,,,
809.8357542,20.07253,73.26985667,5936.910903,158.1684723,294.3500061,2.099999905,10.10000038,,,,,,,,,,,,,,,,,
810.8339335,20.07309333,73.268465,5932.505991,158.5524597,292.4400024,2.099999905,10.19999981,,,,,,,,,,,,,,,,,
811.8333044,20.07362667,73.26705667,5928.501181,158.713562,291.1799927,2.0,9.800000191,,,,,,,,,,,,,,,,,
812.8340219,20.07412333,73.26564333,5923.596523,157.8972168,289.5700073,2.0,10.0,,,,,,,,,,,,,,,,,
813.8346132,20.07458,73.264215,5918.692015,158.342453,288.0799866,2.0,10.10000038,,,,,,,,,,,,,,,,,
814.8325572,20.07500167,73.26276833,5913.587628,158.7429047,286.5400085,2.099999905,10.30000019,,,,,,,,,,,,,,,,,
815.8339812,20.07539,73.26131,5907.783368,158.4371643,285.0700073,2.200000048,10.30000019,,,,,,,,,,,,,,,,,
816.8335659,20.075745,73.25984167,5902.079237,158.4628906,283.4899902,2.200000048,10.30000019,,,,,,,,,,,,,,,,,
817.8329581,20.07605667,73.25835833,5897.175271,158.9889374,281.9299927,2.200000048,10.19999981,,,,,,,,,,,,,,,,,
818.8344535,20.07633333,73.25687167,5892.071453,158.4999542,280.3999939,2.200000048,10.69999981,,,,,,,,,,,,,,,,,
819.834636,20.07657167,73.25537667,5887.867789,158.5920868,278.9899902,2.200000048,10.69999981,,,,,,,,,,,,,,,,,
820.8327705,20.07677167,73.25387833,5882.464289,158.7732697,277.3699951,2.200000048,10.39999962,,,,,,,,,,,,,,,,,
821.8346027,20.076945,73.252375,5876.460897,158.7676086,276.1300049,2.200000048,10.30000019,,,,,,,,,,,,,,,,,
822.83254,20.07708,73.25086667,5871.157666,158.3707581,274.5799866,2.200000048,10.10000038,,,,,,,,,,,,,,,,,
823.8328187,20.07717667,73.24935667,5865.254601,158.032074,273.2099915,2.200000048,10.10000038,,,,,,,,,,,,,,,,,
824.8325939,20.07723833,73.24784333,5861.151685,158.1952362,271.5,2.200000048,10.0,,,,,,,,,,,,,,,,,
825.8348492,20.077255,73.24632833,5856.748965,158.3851776,269.8299866,2.099999905,10.30000019,,,,,,,,,,,,,,,,,
826.8337665,20.07723333,73.24481167,5852.146412,158.4809113,268.4899902,2.099999905,10.10000038,,,,,,,,,,,,,,,,,
827.8349394,20.07717,73.24329833,5847.044049,157.9821472,266.8399963,2.099999905,9.800000191,,,,,,,,,,,,,,,,,
828.8332317,20.07706,73.241795,5840.44191,157.8457489,265.2799988,2.099999905,10.5,,,,,,,,,,,,,,,,,
829.833112,20.07691167,73.2403,5834.539956,157.8092041,263.7000122,2.099999905,10.60000038,,,,,,,,,,,,,,,,,
830.8329101,20.07673333,73.23880667,5828.838138,157.306839,262.1400146,2.200000048,10.89999962,,,,,,,,,,,,,,,,,
831.83422,20.07651667,73.237325,5823.53651,156.9784393,260.5299988,2.200000048,11.0,,,,,,,,,,,,,,,,,
832.8341994,20.07626,73.23585167,5817.835074,157.1086578,258.8200073,2.299999952,11.0,,,,,,,,,,,,,,,,,
833.8344363,20.075965,73.23438667,5813.233823,156.6042328,257.480011,2.200000048,10.5,,,,,,,,,,,,,,,,,
834.8331809,20.07564167,73.23294,5808.33273,155.3539734,256.0899963,2.200000048,10.19999981,,,,,,,,,,,,,,,,,
835.8332458,20.07527667,73.23150333,5803.43184,156.7226257,254.0299988,2.200000048,10.30000019,,,,,,,,,,,,,,,,,
836.8337837,20.07487167,73.230075,5799.431142,156.2640076,252.8800049,2.200000048,10.30000019,,,,,,,,,,,,,,,,,
837.8352335,20.074435,73.22865,5796.530591,156.1816559,251.3600006,2.099999905,10.19999981,,,,,,,,,,,,,,,,,
838.8335594,20.07396167,73.22724333,5794.130235,155.4085388,249.7400055,2.099999905,9.800000191,,,,,,,,,,,,,,,,,
839.8349779,20.073455,73.22585333,5790.630057,155.5222931,248.4700012,2.099999905,10.0,,,,,,,,,,,,,,,,,
840.8336028,20.07292333,73.22448,5786.53002,155.4836884,246.9400024,2.200000048,10.30000019,,,,,,,,,,,,,,,,,
841.8334929,20.07236,73.22312,5782.830147,155.2783051,245.7799988,2.200000048,10.0,,,,,,,,,,,,,,,,,
842.8347587,20.07175833,73.221785,5777.330489,154.7146912,243.8600006,2.099999905,9.800000191,,,,,,,,,,,,,,,,,
843.8353815,20.07112,73.220475,5773.031038,154.3317413,242.1900024,2.099999905,9.600000381,,,,,,,,,,,,,,,,,
844.8334074,20.07045333,73.219185,5768.031748,154.1428375,240.75,2.099999905,9.899999619,,,,,,,,,,,,,,,,,
845.8345311,20.069755,73.21791333,5762.932632,154.1104126,239.4700012,2.099999905,9.800000191,,,,,,,,,,,,,,,,,
846.8343237,20.06902833,73.21666167,5759.433678,153.9184113,237.6999969,2.0,9.699999809,,,,,,,,,,,,,,,,,
847.832645,20.06827167,73.21543333,5754.934898,152.9790497,236.3000031,2.0,9.899999619,,,,,,,,,,,,,,,,,
848.834381,20.067485,73.21422667,5750.936291,153.2878876,234.8600006,2.0,9.899999619,,,,,,,,,,,,,,,,,
849.8344985,20.06667333,73.21304333,5747.437836,153.1350098,233.5200043,2.0,9.699999809,,,,,,,,,,,,,,,,,
850.8324704,20.06584,73.211875,5741.639505,152.9718475,232.3200073,2.0,10.0,,,,,,,,,,,,,,,,,
851.8344883,20.06497333,73.21073667,5736.141375,152.7448425,230.5700073,2.0,10.10000038,,,,,,,,,,,,,,,,,
852.8331778,20.06407833,73.20962333,5733.843416,152.766983,229.1900024,2.0,10.0,,,,,,,,,,,,,,,,,
853.8329717,20.06315667,73.20853333,5729.845616,152.9908905,227.6499939,2.0,10.0,,,,,,,,,,,,,,,,,
854.8349412,20.06221333,73.20746833,5726.847958,152.6748505,226.3699951,2.0,9.800000191,,,,,,,,,,,,,,,,,
855.8351735,20.06124333,73.20643167,5722.450469,152.414917,224.7400055,2.0,9.600000381,,,,,,,,,,,,,,,,,
856.8329031,20.06024833,73.20542333,5717.853141,152.3938141,223.4600067,2.0,9.5,,,,,,,,,,,,,,,,,
857.8348234,20.059235,73.20443667,5713.755933,152.2357941,222.2100067,2.0,9.600000381,,,,,,,,,,,,,,,,,
858.8346428,20.05820333,73.20347667,5709.958854,152.1961517,220.8600006,2.0,9.699999809,,,,,,,,,,,,,,,,,
859.8332747,20.05714833,73.20254333,5705.961927,152.2115936,219.1799927,2.099999905,10.0,,,,,,,,,,,,,,,,,
860.8342748,20.056075,73.20163667,5701.465128,151.8651886,218.2299957,2.200000048,10.19999981,,,,,,,,,,,,,,,,,
861.8349751,20.05498667,73.20075667,5697.268444,151.9876862,216.6000061,2.200000048,10.80000019,,,,,,,,,,,,,,,,,
862.8328628,20.05386,73.19991667,5691.172,151.9568024,215.1799927,2.200000048,10.30000019,,,,,,,,,,,,,,,,,
863.834725,20.05272833,73.19909833,5685.875617,152.1127625,213.6000061,2.200000048,10.0,,,,,,,,,,,,,,,,,
864.8329701,20.05157833,73.19831167,5680.879372,151.7848969,212.0700073,2.200000048,10.5,,,,,,,,,,,,,,,,,
865.8326052,20.05040833,73.19756333,5676.583283,151.656723,210.8399963,2.200000048,10.69999981,,,,,,,,,,,,,,,,,
866.8332616,20.04922,73.19684167,5671.187323,151.8595276,209.0299988,2.200000048,11.10000038,,,,,,,,,,,,,,,,,
867.8348093,20.04802,73.19615167,5665.591471,151.3926697,208.0,2.200000048,11.69999981,,,,,,,,,,,,,,,,,
868.8345001,20.04680667,73.19549167,5664.99573,151.257309,206.5500031,2.200000048,11.10000038,,,,,,,,,,,,,,,,,
869.8348594,20.04557333,73.19487167,5661.000149,151.0617065,205.0700073,2.200000048,10.80000019,,,,,,,,,,,,,,,,,
870.8336634,20.04432833,73.19428833,5655.904684,150.1892548,203.4199982,2.200000048,10.80000019,,,,,,,,,,,,,,,,,
871.8331575,20.04307167,73.19373833,5649.10933,150.1974945,202.1399994,2.200000048,11.10000038,,,,,,,,,,,,,,,,,
872.8344902,20.041805,73.19321333,5644.014063,150.9098663,200.9299927,2.200000048,11.60000038,,,,,,,,,,,,,,,,,
873.8347133,20.04052333,73.19272,5637.818919,150.510437,199.4100037,2.200000048,11.19999981,,,,,,,,,,,,,,,,,
874.8343859,20.03924,73.19226,5632.823841,150.4054413,198.0700073,2.200000048,10.60000038,,,,,,,,,,,,,,,,,
875.8349019,20.03794333,73.191835,5627.528883,150.2695465,196.6399994,2.200000048,11.19999981,,,,,,,,,,,,,,,,,
876.8335151,20.03663833,73.191445,5621.634023,149.9828491,194.9499969,2.200000048,11.19999981,,,,,,,,,,,,,,,,,
877.8338296,20.03532667,73.19109333,5615.93926,149.7677002,193.7100067,2.200000048,11.39999962,,,,,,,,,,,,,,,,,
878.8338622,20.03400667,73.19077833,5611.344597,150.1213074,192.0800018,2.299999952,12.0,,,,,,,,,,,,,,,,,
879.8352594,20.032695,73.19049167,5610.349947,149.5144501,190.8899994,2.299999952,11.80000019,,,,,,,,,,,,,,,,,
880.833745,20.031365,73.19023667,5604.355433,149.4290009,189.5299988,2.200000048,11.5,,,,,,,,,,,,,,,,,
881.8354181,20.03003167,73.19002,5598.561,149.1639252,187.8999939,2.200000048,11.39999962,,,,,,,,,,,,,,,,,
882.8336117,20.02868833,73.189845,5591.966683,149.8196869,186.4199982,2.200000048,11.5,,,,,,,,,,,,,,,,,
883.8333446,20.02735,73.18970333,5588.072402,149.0676727,184.8300018,2.200000048,11.30000019,,,,,,,,,,,,,,,,,
884.8336121,20.026015,73.189605,5583.178181,148.4278717,183.1900024,2.200000048,11.5,,,,,,,,,,,,,,,,,
885.8345406,20.02467,73.18955,5577.684079,148.9204559,181.4799957,2.200000048,11.80000019,,,,,,,,,,,,,,,,,
886.8335625,20.02333,73.18953667,5571.690027,148.7480316,179.6600037,2.200000048,11.80000019,,,,,,,,,,,,,,,,,
887.8346028,20.02199,73.18957333,5568.09606,148.3146362,177.6900024,2.099999905,12.0,,,,,,,,,,,,,,,,,
888.8338081,20.02065333,73.189655,5564.402155,148.4407349,176.2200012,2.200000048,12.0,,,,,,,,,,,,,,,,,
889.8331471,20.01931667,73.18977333,5560.008313,148.652298,174.4799957,2.200000048,12.19999981,,,,,,,,,,,,,,,,,
890.8345018,20.01798667,73.18993667,5554.814519,148.3316193,172.5,2.299999952,12.60000038,,,,,,,,,,,,,,,,,
891.8342603,20.01666,73.190145,5549.620786,149.1165771,170.8500061,2.400000095,13.39999962,,,,,,,,,,,,,,,,,
892.8331824,20.01533833,73.19039667,5544.327105,149.0136261,169.0599976,2.5,14.30000019,,,,,,,,,,,,,,,,,
893.8347154,20.01403,73.19070333,5539.133459,148.2116852,166.9100037,2.5,15.0,,,,,,,,,,,,,,,,,
894.8340877,20.01273667,73.19105,5531.239813,147.8735199,165.5599976,2.5,14.10000038,,,,,,,,,,,,,,,,,
895.8342206,20.01145,73.19143167,5525.846197,148.1401367,163.8999939,2.5,14.60000038,,,,,,,,,,,,,,,,,
896.8342824,20.01018,73.191865,5519.952595,147.8977051,162.0899963,2.5,14.30000019,,,,,,,,,,,,,,,,,
897.8348401,20.008925,73.192345,5513.659005,148.1118317,159.8200073,2.5,14.0,,,,,,,,,,,,,,,,,
898.8344667,20.007685,73.19286333,5508.165414,147.5188751,158.2700043,2.5,13.69999981,,,,,,,,,,,,,,,,,
899.8344031,20.00646167,73.19341167,5505.671798,147.1318054,156.6199951,2.5,13.5,,,,,,,,,,,,,,,,,
900.8324221,20.00525833,73.19400333,5502.378167,146.7267151,154.2100067,2.5,14.10000038,,,,,,,,,,,,,,,,,
901.832913,20.004075,73.194625,5498.884497,146.3267822,152.6000061,2.5,15.30000019,,,,,,,,,,,,,,,,,
902.8336481,20.00291,73.195285,5496.49081,146.7457581,151.3200073,2.5,15.60000038,,,,,,,,,,,,,,,,,
903.8334034,20.00175833,73.195975,5494.997114,146.7843628,150.4100037,2.5,16.5,,,,,,,,,,,,,,,,,
904.8326204,20.000635,73.19672667,5493.703396,146.9737854,147.4600067,2.5,15.0,,,,,,,,,,,,,,,,,
905.8347561,19.99952167,73.197495,5492.709998,147.429306,146.1000061,2.599999905,15.30000019,,,,,,,,,,,,,,,,,
906.8333486,19.99842667,73.198295,5493.117005,147.3304901,144.6499939,2.5,15.69999981,,,,,,,,,,,,,,,,,
907.832581,19.99736,73.19913,5492.723926,146.7148743,142.8899994,2.599999905,16.0,,,,,,,,,,,,,,,,,
908.8329385,19.99631,73.19999833,5497.030815,147.7746887,141.5399933,2.5,14.39999962,,,,,,,,,,,,,,,,,
909.8344357,19.99527333,73.20089,5496.837675,147.9527893,140.3500061,2.5,14.30000019,,,,,,,,,,,,,,,,,
910.8338274,19.99426333,73.20182167,5496.944464,148.3249359,138.2799988,2.599999905,14.69999981,,,,,,,,,,,,,,,,,
911.8334939,19.99327833,73.20278333,5506.051174,148.193161,136.8999939,2.5,13.80000019,,,,,,,,,,,,,,,,,
912.832852,19.99231333,73.203775,5504.157831,148.3887482,135.3200073,2.5,13.60000038,,,,,,,,,,,,,,,,,
913.8331954,19.99137,73.20479333,5502.46442,148.912735,133.9400024,2.5,13.19999981,,,,,,,,,,,,,,,,,
914.8328182,19.99044833,73.20583833,5499.770941,149.4928284,132.3999939,2.5,12.80000019,,,,,,,,,,,,,,,,,
915.8346077,19.98954,73.2069,5495.577421,149.5082703,131.2299957,2.400000095,12.69999981,,,,,,,,,,,,,,,,,
916.8332167,19.98867333,73.20799833,5496.183747,149.2689362,129.1199951,2.400000095,12.60000038,,,,,,,,,,,,,,,,,
917.8346388,19.98783667,73.20912167,5496.08996,149.352829,127.6200027,2.400000095,12.69999981,,,,,,,,,,,,,,,,,
918.8333769,19.98702833,73.21027333,5497.196074,150.0868225,126.0999985,2.400000095,13.39999962,,,,,,,,,,,,,,,,,
919.8326541,19.98625,73.21144667,5497.902069,150.0801392,124.3600006,2.400000095,13.60000038,,,,,,,,,,,,,,,,,
920.8328567,19.98550167,73.21264833,5499.707956,150.8161774,122.75,2.400000095,13.0,,,,,,,,,,,,,,,,,
921.8344421,19.984785,73.21387,5501.413713,150.2227173,121.3799973,2.5,13.10000038,,,,,,,,,,,,,,,,,
922.8325557,19.98409833,73.215105,5503.719338,149.6122437,119.75,2.5,13.19999981,,,,,,,,,,,,,,,,,
923.8340373,19.983445,73.216355,5503.124815,149.7790222,118.5,2.5,13.30000019,,,,,,,,,,,,,,,,,
924.8326117,19.98282167,73.21763,5503.630179,150.4522705,116.7600021,2.5,14.10000038,,,,,,,,,,,,,,,,,
925.8325517,19.98223833,73.21893,5502.535378,150.9664764,114.5599976,2.599999905,13.89999962,,,,,,,,,,,,,,,,,
926.8339696,19.98170833,73.22026333,5498.640359,150.9592743,112.7200012,2.599999905,13.39999962,,,,,,,,,,,,,,,,,
927.8348884,19.98119833,73.221595,5497.745234,150.017334,111.7300034,2.599999905,14.19999981,,,,,,,,,,,,,,,,,
928.8339973,19.98071667,73.22293667,5496.949978,150.6530151,110.0199966,2.700000048,14.80000019,,,,,,,,,,,,,,,,,
929.8343784,19.98026333,73.22429333,5497.254602,150.6247101,108.7200012,2.700000048,14.30000019,,,,,,,,,,,,,,,,,
930.8331034,19.97984833,73.22566,5497.459045,150.1897736,106.9700012,2.700000048,14.19999981,,,,,,,,,,,,,,,,,
931.8332561,19.97947,73.22703167,5498.663307,149.668869,105.5100021,2.799999952,14.39999962,,,,,,,,,,,,,,,,,
932.8332584,19.97912833,73.22841167,5498.267395,149.4434204,104.2099991,2.799999952,14.5,,,,,,,,,,,,,,,,,
933.8350751,19.97882333,73.22980667,5497.171319,149.9782104,102.5199966,2.900000095,15.0,,,,,,,,,,,,,,,,,
934.8339412,19.97856167,73.23121,5497.675033,150.2283783,99.90000153,3.0,15.80000019,,,,,,,,,,,,,,,,,
935.8351144,19.97837,73.23264,5490.578434,150.2206573,98.34999847,2.900000095,13.89999962,,,,,,,,,,,,,,,,,
936.8333424,19.97819833,73.23407167,5489.481734,151.0761261,96.91000366,2.799999952,12.89999962,,,,,,,,,,,,,,,,,
937.8344544,19.97807,73.235515,5490.184831,150.8377991,94.69000244,2.700000048,13.5,,,,,,,,,,,,,,,,,
938.8352096,19.977985,73.23696,5492.287708,150.3683777,92.97000122,2.700000048,13.69999981,,,,,,,,,,,,,,,,,
939.8349671,19.97793833,73.23840667,5493.390392,150.7533875,91.62000275,2.599999905,13.89999962,,,,,,,,,,,,,,,,,
940.8328979,19.97792667,73.239855,5493.692898,151.022583,89.76000214,2.599999905,13.69999981,,,,,,,,,,,,,,,,,
941.8351714,19.977955,73.24130333,5494.4952,150.5402985,88.29000092,2.599999905,14.39999962,,,,,,,,,,,,,,,,,
942.8339578,19.97802,73.24274833,5496.597308,151.0122986,86.36000061,2.599999905,14.39999962,,,,,,,,,,,,,,,,,
943.8335277,19.97813667,73.244195,5496.799154,150.8295746,84.94000244,2.599999905,14.39999962,,,,,,,,,,,,,,,,,
944.8348772,19.97826,73.245625,5497.400938,151.8255615,82.87999725,3.299999952,14.10000038,,,,,,,,,,,,,,,,,
945.8340935,19.97844667,73.24706333,5498.602412,151.6994476,81.73999786,3.299999952,13.19999981,,,,,,,,,,,,,,,,,
946.8327277,19.978675,73.24849167,5499.103656,150.8156738,80.18000031,3.299999952,14.5,,,,,,,,,,,,,,,,,
947.8355948,19.97894833,73.24991167,5499.304656,151.0395813,77.56999969,3.299999952,15.19999981,,,,,,,,,,,,,,,,,
948.8329667,19.97925167,73.25131333,5500.405472,150.5994873,76.73999786,3.200000048,16.39999962,,,,,,,,,,,,,,,,,
949.8327064,19.97958,73.252705,5503.206144,150.5680847,75.18000031,3.200000048,16.79999924,,,,,,,,,,,,,,,,,
950.8333154,19.97995833,73.25409833,5503.406563,151.8708496,73.33999634,3.200000048,17.70000076,,,,,,,,,,,,,,,,,
951.8338954,19.98038,73.25548667,5503.606752,152.4200592,71.36000061,3.200000048,18.20000076,,,,,,,,,,,,,,,,,
952.8327634,19.98084333,73.25686167,5504.706707,151.6402588,70.19000244,3.099999905,18.39999962,,,,,,,,,,,,,,,,,
953.8342708,19.98133,73.25821667,5504.606509,151.9671021,68.51999664,3.200000048,19.60000038,,,,,,,,,,,,,,,,,
954.8335824,19.98184833,73.259555,5504.306122,151.2789154,67.41999817,3.200000048,20.39999962,,,,,,,,,,,,,,,,,
955.8327465,19.982395,73.26088333,5503.705574,152.8946381,65.94999695,3.299999952,21.5,,,,,,,,,,,,,,,,,
956.8331332,19.98297167,73.262205,5504.904862,154.1742401,65.09999847,3.299999952,21.70000076,,,,,,,,,,,,,,,,,
957.8354868,19.98361833,73.26347833,5492.403712,150.9304504,61.54000092,3.200000048,16.20000076,,,,,,,,,,,,,,,,,
958.8339868,19.98429,73.26471167,5503.802367,150.662796,59.97000122,3.0,14.69999981,,,,,,,,,,,,,,,,,
959.8344384,19.985,73.26594833,5504.400833,151.8518066,58.54000092,2.900000095,14.89999962,,,,,,,,,,,,,,,,,
960.8329378,19.98573167,73.26716833,5504.899161,150.5747833,57.38000107,3.0,15.89999962,,,,,,,,,,,,,,,,,
961.8330598,19.9865,73.26836833,5505.397269,151.1651611,55.56999969,3.0,16.89999962,,,,,,,,,,,,,,,,,
962.8341846,19.98734,73.26953167,5506.394951,151.0406036,53.75,3.0,18.10000038,,,,,,,,,,,,,,,,,
963.8346748,19.988185,73.270675,5508.192574,151.7457733,51.79000092,3.0,19.10000038,,,,,,,,,,,,,,,,,
964.8339631,19.98906833,73.271805,5509.189979,151.8847504,50.13999939,3.0,20.10000038,,,,,,,,,,,,,,,,,
965.8347068,19.98997667,73.27291167,5507.887219,151.4472351,48.58000183,3.0,21.10000038,,,,,,,,,,,,,,,,,
966.8345259,19.99091333,73.273985,5507.184259,151.4765778,46.81000137,3.0,21.29999924,,,,,,,,,,,,,,,,,
967.8337252,19.99186,73.27503167,5504.681204,151.6026764,45.25,2.900000095,21.29999924,,,,,,,,,,,,,,,,,
968.834949,19.99285167,73.276035,5506.477847,151.6309967,43.43999863,3.0,21.70000076,,,,,,,,,,,,,,,,,
969.834649,19.993865,73.27700833,5508.17433,151.4472351,41.97000122,3.0,22.10000038,,,,,,,,,,,,,,,,,
970.8352424,19.99493667,73.27792167,5523.870415,151.8790894,39.43999863,2.799999952,17.29999924,,,,,,,,,,,,,,,,,
971.8350498,19.996005,73.27883,5525.066509,151.1080322,38.25,2.799999952,17.79999924,,,,,,,,,,,,,,,,,
972.8349256,19.99709167,73.27971167,5526.462465,152.237854,36.75,2.799999952,18.0,,,,,,,,,,,,,,,,,
973.8340077,19.99820833,73.28055833,5526.65821,151.6855469,34.91999817,2.700000048,17.70000076,,,,,,,,,,,,,,,,,
974.8343418,19.99934667,73.28136333,5525.953775,151.4415741,32.68000031,2.700000048,18.0,,,,,,,,,,,,,,,,,
975.834765,20.00051,73.28213333,5525.949509,152.0556335,31.73999977,2.700000048,17.70000076,,,,,,,,,,,,,,,,,
976.8347763,20.001685,73.28287833,5524.545604,151.8914337,30.30999947,2.700000048,17.70000076,,,,,,,,,,,,,,,,,
977.8347301,20.002885,73.28358333,5522.341522,152.3711548,27.95999908,2.700000048,17.89999962,,,,,,,,,,,,,,,,,
978.8349013,20.00410667,73.28425167,5503.237283,152.1107178,27.27000046,2.700000048,15.69999981,,,,,,,,,,,,,,,,,
979.8337948,20.00534667,73.28488333,5497.332901,151.9774017,24.79999924,2.599999905,14.80000019,,,,,,,,,,,,,,,,,
980.8344711,20.00660833,73.28545667,5492.328325,151.9496002,22.34000015,2.599999905,14.10000038,,,,,,,,,,,,,,,,,
981.8351517,20.00788333,73.28599833,5491.123638,151.9547577,21.46999931,2.700000048,14.5,,,,,,,,,,,,,,,,,
982.8349841,20.00917167,73.286505,5487.218832,151.7385712,19.72999954,2.700000048,14.0,,,,,,,,,,,,,,,,,
983.8352298,20.01047333,73.28698333,5487.41392,152.5070496,18.40999985,2.700000048,13.39999962,,,,,,,,,,,,,,,,,
984.8346505,20.01179167,73.28742,5487.508864,152.5312347,16.56999969,2.700000048,13.10000038,,,,,,,,,,,,,,,,,
985.8335523,20.01312,73.28781667,5487.003697,152.5610962,14.85999966,2.799999952,13.69999981,,,,,,,,,,,,,,,,,
986.8337708,20.01446,73.28819333,5491.998444,152.7021332,13.52000046,2.799999952,13.60000038,,,,,,,,,,,,,,,,,
987.8350821,20.01580667,73.28851,5492.49306,152.4447632,11.93000031,2.900000095,14.19999981,,,,,,,,,,,,,,,,,
988.8335624,20.01716,73.28884667,5505.987681,152.8380127,10.77999973,2.799999952,13.80000019,,,,,,,,,,,,,,,,,
989.8351973,20.01852,73.28908167,5506.482099,153.121109,8.359999657,2.799999952,14.39999962,,,,,,,,,,,,,,,,,
990.8357566,20.01988667,73.28928667,5513.676437,152.2898407,6.519999981,2.799999952,14.0,,,,,,,,,,,,,,,,,
991.8347665,20.02125833,73.28945167,5520.470684,153.0258942,5.480000019,2.700000048,16.60000038,,,,,,,,,,,,,,,,,
992.8347575,20.02263333,73.28957333,5525.764843,153.1530304,3.650000095,2.599999905,15.69999981,,,,,,,,,,,,,,,,,
993.835232,20.02401333,73.28963,5524.758868,152.9337463,1.590000033,2.5,15.80000019,,,,,,,,,,,,,,,,,
994.8338856,20.025395,73.289645,5524.052814,153.3439789,0.3100000024,2.400000095,15.30000019,,,,,,,,,,,,,,,,,
995.8354114,20.02677667,73.28960833,5519.046672,153.0330963,358.3299866,2.400000095,15.69999981,,,,,,,,,,,,,,,,,
996.8342124,20.02815833,73.289525,5517.540449,152.9389038,356.0,2.5,15.0,,,,,,,,,,,,,,,,,
997.833036,20.02954,73.28939667,5513.834148,154.0877533,354.7000122,2.5,14.30000019,,,,,,,,,,,,,,,,,
998.8351141,20.03092167,73.28923333,5512.327788,153.4242859,353.3599854,2.5,14.0,,,,,,,,,,,,,,,,,
999.835689,20.03229167,73.28903833,5512.021423,153.0608826,351.6700134,2.5,14.10000038,,,,,,,,,,,,,,,,,
1000.835305,20.03364833,73.2888,5509.215043,153.0428772,350.1600037,2.5,14.0,,,,,,,,,,,,,,,,,
1001.835974,20.035005,73.28852333,5506.508596,153.2930298,348.480011,2.400000095,13.69999981,,,,,,,,,,,,,,,,,
1002.834491,20.03635,73.28820333,5503.502125,152.8987579,346.3800049,2.400000095,13.10000038,,,,,,,,,,,,,,,,,
1003.833031,20.03768833,73.287835,5500.3956,153.3460388,345.0299988,2.400000095,13.19999981,,,,,,,,,,,,,,,,,
1004.834885,20.03901833,73.28743333,5497.589054,153.3532562,343.2099915,2.400000095,12.89999962,,,,,,,,,,,,,,,,,
1005.835044,20.04034333,73.286995,5493.882465,153.6667175,342.3399963,2.400000095,12.80000019,,,,,,,,,,,,,,,,,
1006.834885,20.04164833,73.28651333,5493.775889,152.9764709,340.0100098,2.400000095,12.10000038,,,,,,,,,,,,,,,,,
1007.834576,20.04294167,73.28598667,5495.069286,153.4664917,338.2000122,2.299999952,12.19999981,,,,,,,,,,,,,,,,,
1008.834743,20.04421667,73.285415,5494.062685,153.4340668,336.4700012,2.299999952,12.19999981,,,,,,,,,,,,,,,,,
1009.833266,20.04548,73.28481333,5493.556083,153.0145569,334.9500122,2.200000048,12.19999981,,,,,,,,,,,,,,,,,
1010.835129,20.04673333,73.28418333,5491.449475,153.6898804,333.6199951,2.200000048,12.10000038,,,,,,,,,,,,,,,,,
1011.834921,20.047965,73.283505,5487.742878,153.6548767,331.6900024,2.200000048,12.89999962,,,,,,,,,,,,,,,,,
1012.834686,20.049175,73.282785,5488.336304,153.644577,329.769989,2.200000048,13.39999962,,,,,,,,,,,,,,,,,
1013.835184,20.05036,73.28202667,5491.229772,153.2914886,327.9899902,2.200000048,14.0,,,,,,,,,,,,,,,,,
1014.834779,20.051525,73.28122333,5489.723249,153.9338531,326.3800049,2.200000048,14.69999981,,,,,,,,,,,,,,,,,
1015.833981,20.05267,73.28039167,5489.716764,153.7645111,324.8999939,2.299999952,15.39999962,,,,,,,,,,,,,,,,,
1016.834011,20.05379667,73.27953167,5491.11031,153.5946503,323.2999878,2.299999952,14.39999962,,,,,,,,,,,,,,,,,
1017.835435,20.05489667,73.27863833,5491.403914,154.086731,321.7000122,2.299999952,15.10000038,,,,,,,,,,,,,,,,,
1018.834862,20.05597167,73.27770667,5489.997561,153.4628906,319.8299866,2.400000095,15.60000038,,,,,,,,,,,,,,,,,
1019.835741,20.05701167,73.27674167,5489.091304,153.2286835,317.8900146,2.5,16.29999924,,,,,,,,,,,,,,,,,
1020.834173,20.058025,73.275745,5487.885108,153.5787048,316.3999939,2.5,16.5,,,,,,,,,,,,,,,,,
1021.834314,20.05901333,73.27472,5486.978971,153.7511292,314.9299927,2.5,15.19999981,,,,,,,,,,,,,,,,,
1022.83432,20.05997333,73.27366833,5490.072912,153.5287781,313.5,2.400000095,14.0,,,,,,,,,,,,,,,,,
1023.835385,20.06090667,73.27258333,5492.166912,153.6697998,311.3999939,2.299999952,13.5,,,,,,,,,,,,,,,,,
1024.835287,20.06180833,73.27146667,5494.160995,153.1797943,310.0299988,2.299999952,13.5,,,,,,,,,,,,,,,,,
1025.835225,20.06268167,73.27032667,5498.855162,153.1890564,308.2999878,2.299999952,13.10000038,,,,,,,,,,,,,,,,,
1026.834239,20.06350833,73.26915,5496.549469,153.6353149,306.2799988,2.200000048,13.30000019,,,,,,,,,,,,,,,,,
1027.834391,20.06432,73.26795833,5499.143816,153.403183,305.0100098,2.200000048,13.39999962,,,,,,,,,,,,,,,,,
1028.834437,20.06509833,73.26673667,5500.838256,153.8623047,303.019989,2.200000048,13.0,,,,,,,,,,,,,,,,,
1029.834839,20.065835,73.26549167,5501.532838,153.2292023,301.4299927,2.200000048,13.0,,,,,,,,,,,,,,,,,
1030.834538,20.06653833,73.26422833,5501.927535,153.0094147,299.6499939,2.200000048,13.69999981,,,,,,,,,,,,,,,,,
1031.835432,20.0672,73.26294167,5502.622374,153.5158997,297.769989,2.299999952,14.10000038,,,,,,,,,,,,,,,,,
1032.834622,20.06782833,73.261635,5504.617325,152.9986115,296.3699951,2.299999952,14.5,,,,,,,,,,,,,,,,,
1033.834242,20.06842167,73.260315,5502.312406,153.1926575,295.0700073,2.299999952,14.60000038,,,,,,,,,,,,,,,,,
1034.834651,20.06897333,73.258975,5501.507635,153.2256012,292.8699951,2.299999952,14.60000038,,,,,,,,,,,,,,,,,
1035.835033,20.06948,73.257615,5499.503027,153.0114746,291.2200012,2.299999952,13.80000019,,,,,,,,,,,,,,,,,
1036.834722,20.06995667,73.256255,5500.098552,153.1030884,289.5100098,2.299999952,13.89999962,,,,,,,,,,,,,,,,,
1037.835262,20.07038833,73.25487333,5498.794236,152.2924042,287.7000122,2.200000048,14.10000038,,,,,,,,,,,,,,,,,
1038.83383,20.070785,73.25348167,5499.590058,152.2764587,285.8200073,2.200000048,14.39999962,,,,,,,,,,,,,,,,,
1039.833291,20.07114833,73.25207167,5499.785994,152.9600067,284.6199951,2.200000048,14.30000019,,,,,,,,,,,,,,,,,
1040.835105,20.071475,73.250655,5500.18208,152.2126312,282.8599854,2.299999952,14.30000019,,,,,,,,,,,,,,,,,
1041.837073,20.07176,73.24922833,5500.178332,152.6645508,281.1600037,2.400000095,14.69999981,,,,,,,,,,,,,,,,,
1042.834622,20.07199667,73.24779167,5494.77478,151.6232758,280.0499878,2.400000095,14.0,,,,,,,,,,,,,,,,,
1043.836698,20.07220833,73.24634333,5493.971318,152.6228638,277.8800049,2.400000095,13.39999962,,,,,,,,,,,,,,,,,
1044.83494,20.07237833,73.2449,5493.368049,151.9573212,276.1900024,2.299999952,12.39999962,,,,,,,,,,,,,,,,,
1045.834467,20.07249833,73.243445,5496.86498,152.8529358,274.4400024,2.299999952,12.39999962,,,,,,,,,,,,,,,,,
1046.835631,20.07257833,73.24199,5495.062089,152.6079254,272.6199951,2.299999952,12.60000038,,,,,,,,,,,,,,,,,
1047.835718,20.07264,73.24053167,5495.259272,152.0443115,271.4500122,3.0,13.69999981,,,,,,,,,,,,,,,,,
1048.834922,20.07265667,73.239075,5496.556658,152.3999786,270.230011,2.900000095,13.10000038,,,,,,,,,,,,,,,,,
1049.836513,20.07264333,73.23762667,5497.754191,151.0390625,268.8599854,2.799999952,13.69999981,,,,,,,,,,,,,,,,,
1050.834739,20.07256667,73.23618833,5497.052022,151.2542114,266.2200012,2.799999952,13.69999981,,,,,,,,,,,,,,,,,
1051.834871,20.07247667,73.23474833,5498.449909,152.2579193,265.0400085,3.299999952,13.89999962,,,,,,,,,,,,,,,,,
1052.835125,20.07231167,73.23330167,5499.148117,152.2224121,262.9400024,3.099999905,12.80000019,,,,,,,,,,,,,,,,,
1053.834851,20.07210167,73.23186167,5499.546537,151.9665833,261.1600037,2.900000095,13.19999981,,,,,,,,,,,,,,,,,
1054.834183,20.07186333,73.23043333,5498.445103,151.5172424,259.4599915,2.799999952,13.69999981,,,,,,,,,,,,,,,,,
1055.835187,20.07159667,73.22901167,5500.343806,152.2342377,257.8500061,2.799999952,13.89999962,,,,,,,,,,,,,,,,,
1056.836018,20.07128667,73.2276,5500.442719,151.4019318,256.1199951,2.700000048,13.89999962,,,,,,,,,,,,,,,,,
1057.834339,20.07093833,73.22620333,5502.041829,151.7298126,254.5299988,2.700000048,13.69999981,,,,,,,,,,,,,,,,,
1058.834123,20.07055667,73.22481167,5504.441096,151.5115814,252.7899933,2.700000048,13.80000019,,,,,,,,,,,,,,,,,
1059.835089,20.07012,73.22343333,5503.840631,151.7838593,251.0800018,2.700000048,14.0,,,,,,,,,,,,,,,,,
1060.834204,20.06964833,73.22206833,5503.540346,151.9743042,249.3099976,2.700000048,14.19999981,,,,,,,,,,,,,,,,,
1061.835833,20.06916167,73.22071333,5503.940145,151.8929901,247.5399933,3.400000095,14.19999981,,,,,,,,,,,,,,,,,
1062.834476,20.06864,73.219375,5504.740129,150.7523651,245.8000031,5.300000191,22.0,,,,,,,,,,,,,,,,,
1063.834749,20.06802833,73.21809833,5506.04062,151.5851746,244.2899933,5.400000095,26.79999924,,,,,,,,,,,,,,,,,
1064.835102,20.06732833,73.21679667,5512.641462,151.1414948,242.3600006,5.099999905,25.89999962,,,,,,,,,,,,,,,,,
1065.836193,20.06669,73.21559167,5507.942198,150.7775879,241.1000061,5.0,24.70000076,,,,,,,,,,,,,,,,,
1066.83704,20.06604667,73.21435333,5512.0429,151.3973083,239.1799927,4.800000191,24.89999962,,,,,,,,,,,,,,,,,
1067.836226,20.06534167,73.21311333,5511.643874,150.7250824,238.1399994,4.599999905,25.0,,,,,,,,,,,,,,,,,
1068.835154,20.06456667,73.21187833,5505.045168,150.0966034,236.7599945,4.400000095,23.39999962,,,,,,,,,,,,,,,,,
1069.835089,20.063785,73.21068833,5501.846572,150.4491882,234.3099976,4.199999809,22.39999962,,,,,,,,,,,,,,,,,
1070.836078,20.06297667,73.20952333,5502.348138,151.0102386,232.9100037,4.099999905,22.79999924,,,,,,,,,,,,,,,,,
1071.83571,20.06212667,73.20837667,5500.849922,150.5444183,230.9199982,3.900000095,21.5,,,,,,,,,,,,,,,,,
1072.835231,20.061255,73.20727167,5501.251877,150.7153015,229.3999939,3.799999952,21.20000076,,,,,,,,,,,,,,,,,
1073.836012,20.06029167,73.20622833,5504.254347,150.3009491,227.5299988,3.099999905,17.60000038,,,,,,,,,,,,,,,,,
1074.835006,20.05939833,73.205155,5502.356454,150.0183716,226.2400055,2.799999952,16.89999962,,,,,,,,,,,,,,,,,
1075.835936,20.05846167,73.20412167,5501.058825,149.546875,224.75,2.599999905,15.60000038,,,,,,,,,,,,,,,,,
1076.83601,20.05749,73.20312833,5500.361422,149.962265,223.1999969,2.700000048,15.10000038,,,,,,,,,,,,,,,,,
1077.836527,20.05648333,73.20216833,5500.264234,149.7306366,221.5099945,2.700000048,14.5,,,,,,,,,,,,,,,,,
1078.83478,20.05545667,73.20124,5499.867191,149.5787964,219.8200073,2.799999952,15.10000038,,,,,,,,,,,,,,,,,
1079.836869,20.05439333,73.200345,5499.37037,150.2515411,218.0899963,2.799999952,15.10000038,,,,,,,,,,,,,,,,,
1080.834949,20.05330167,73.19949,5497.573745,149.5834198,216.4100037,2.700000048,16.0,,,,,,,,,,,,,,,,,
1081.835278,20.052185,73.19867333,5496.277299,149.1294403,215.25,2.599999905,15.39999962,,,,,,,,,,,,,,,,,
1082.835842,20.05108167,73.19786167,5496.080803,148.8844299,214.1799927,2.599999905,15.80000019,,,,,,,,,,,,,,,,,
1083.836715,20.04995,73.197085,5495.284495,149.627182,212.6799927,2.700000048,16.39999962,,,,,,,,,,,,,,,,,
1084.835269,20.04874,73.19638833,5493.788675,150.1748352,210.8000031,2.599999905,17.10000038,,,,,,,,,,,,,,,,,
1085.835991,20.04754333,73.19571167,5494.192831,149.5726166,207.8800049,2.5,17.20000076,,,,,,,,,,,,,,,,,
1086.835455,20.04631833,73.19508167,5493.097195,149.2668762,206.3999939,2.400000095,16.5,,,,,,,,,,,,,,,,,
1087.835202,20.0451,73.19447,5493.001562,149.0676727,205.1900024,2.5,17.10000038,,,,,,,,,,,,,,,,,
1088.835436,20.04385,73.19390833,5494.506157,149.5201111,203.75,2.400000095,17.79999924,,,,,,,,,,,,,,,,,
1089.83592,20.04259167,73.19337667,5496.210842,149.6827698,202.0700073,2.400000095,17.0,,,,,,,,,,,,,,,,,
1090.836956,20.041325,73.19287333,5497.515614,149.5134277,200.1199951,2.299999952,16.0,,,,,,,,,,,,,,,,,
1091.835003,20.04005333,73.19239833,5498.920457,149.2128296,198.6000061,2.299999952,16.29999924,,,,,,,,,,,,,,,,,
1092.835756,20.038765,73.19196167,5499.025442,150.2077789,197.1300049,2.299999952,17.29999924,,,,,,,,,,,,,,,,,
1093.834196,20.03748,73.19153833,5498.830435,149.4943848,196.3699951,2.400000095,18.5,,,,,,,,,,,,,,,,,
1094.835201,20.03617833,73.19117,5498.735598,149.19841,193.9900055,2.5,18.29999924,,,,,,,,,,,,,,,,,
1095.835257,20.03486333,73.190865,5499.94093,149.2967224,191.9100037,2.5,17.5,,,,,,,,,,,,,,,,,
1096.833647,20.03354167,73.19059667,5500.646356,149.1639252,190.6300049,2.400000095,17.79999924,,,,,,,,,,,,,,,,,
1097.834679,20.03221333,73.190355,5500.951857,149.510849,189.4400024,2.5,18.0,,,,,,,,,,,,,,,,,
1098.833754,20.03088167,73.19013833,5501.757417,149.3379059,188.4100037,2.5,18.89999962,,,,,,,,,,,,,,,,,
1099.834253,20.02953833,73.18995833,5503.363092,149.3487091,187.2299957,2.400000095,18.89999962,,,,,,,,,,,,,,,,,
1100.834552,20.02819167,73.18980167,5502.468822,149.5170288,186.3399963,2.400000095,19.39999962,,,,,,,,,,,,,,,,,
1101.835435,20.02685,73.18965667,5503.67455,149.1376801,185.5299988,2.400000095,19.29999924,,,,,,,,,,,,,,,,,
1102.834081,20.02551,73.18954,5500.58032,148.4932404,184.6900024,2.400000095,19.39999962,,,,,,,,,,,,,,,,,
1103.835283,20.02417333,73.18942833,5496.886083,149.1412811,184.6000061,2.299999952,17.89999962,,,,,,,,,,,,,,,,,
1104.834666,20.02283167,73.18931833,5496.391872,148.4520721,184.1900024,2.299999952,18.10000038,,,,,,,,,,,,,,,,,
1105.833777,20.021485,73.18922833,5497.397718,149.5777588,183.4199982,2.400000095,18.5,,,,,,,,,,,,,,,,,
1106.8329,20.02014,73.18915,5498.303576,148.7845764,183.0599976,2.400000095,19.39999962,,,,,,,,,,,,,,,,,
1107.834472,20.0188,73.189075,5498.409418,149.383194,182.5899963,2.799999952,18.70000076,,,,,,,,,,,,,,,,,
1108.835054,20.01745333,73.18900333,5498.215295,149.4990082,182.8500061,2.900000095,14.69999981,,,,,,,,,,,,,,,,,
1109.834094,20.01608833,73.18892667,5500.521246,149.840271,183.2200012,2.900000095,16.29999924,,,,,,,,,,,,,,,,,
1110.834252,20.01473667,73.18884167,5501.527123,148.7140656,183.2700043,3.0,17.60000038,,,,,,,,,,,,,,,,,
1111.834162,20.01339333,73.18877333,5502.332992,148.8170013,182.8099976,3.0,19.0,,,,,,,,,,,,,,,,,
1112.833679,20.012035,73.18873167,5501.938973,149.0023041,182.1399994,3.0,19.79999924,,,,,,,,,,,,,,,,,
1113.835285,20.01067,73.1887,5501.045001,149.524231,181.8399963,2.799999952,20.60000038,,,,,,,,,,,,,,,,,
1114.834923,20.00930667,73.18866833,5499.451022,150.0353546,181.6499939,2.700000048,21.20000076,,,,,,,,,,,,,,,,,
